##NAMES=Howieite
##RRUFFID=R060031
##IDEAL CHEMISTRY=Na(Fe^2+^,Fe^3+^,Al,Mg)_12_(Si_6_O_17_)_2_(O,OH)_10_
##LOCALITY=Laytonville quarry, near Longvale, California, USA
##OWNER=RRUFF
##SOURCE=University of Arizona Mineral Museum
##DESCRIPTION=Black bladed crystals associated with quartz and siderite
##STATUS=The identification of this mineral is confirmed by single-crystal X-ray diffraction and chemical analysis.
##URL=rruff.info/R060031
##MEASURED CHEMISTRY=Na_1.00_(Fe^3+^_4.41_Mn_2.68_Fe^2+^_3.89_Al_0.59_Mg_0.43_)_Î£=12_(Si_6.00_O_17_)_2_(OH)_10_
90.59570, 1722.272
91.07782, 1727.086
91.55994, 1728.881
92.04205, 1725.131
92.52417, 1720.094
93.00629, 1715.519
93.48840, 1703.008
93.97052, 1671.950
94.45264, 1619.605
94.93475, 1569.573
95.41687, 1520.392
95.89898, 1471.547
96.38110, 1425.149
96.86321, 1383.208
97.34533, 1345.510
97.82745, 1308.629
98.30956, 1274.176
98.79168, 1240.246
99.27380, 1210.048
99.75591, 1184.781
100.2380, 1163.376
100.7201, 1143.904
101.2023, 1125.585
101.6844, 1108.120
102.1665, 1090.416
102.6486, 1071.403
103.1307, 1052.553
103.6128, 1034.995
104.0950, 1018.435
104.5771, 1003.716
105.0592, 992.0607
105.5413, 982.1629
106.0234, 972.3735
106.5055, 961.4195
106.9877, 949.8280
107.4698, 939.9971
107.9519, 933.5911
108.4340, 926.8318
108.9161, 918.8792
109.3982, 909.4100
109.8804, 897.9147
110.3625, 883.0655
110.8446, 863.6328
111.3267, 847.6306
111.8088, 835.9319
112.2909, 826.4895
112.7731, 818.9817
113.2552, 813.0994
113.7373, 808.1414
114.2194, 803.1925
114.7015, 798.1000
115.1836, 793.2299
115.6658, 789.3969
116.1479, 785.4049
116.6300, 779.9195
117.1121, 772.4037
117.5942, 763.6370
118.0763, 755.3944
118.5584, 747.5934
119.0406, 740.2426
119.5227, 733.4311
120.0048, 727.0957
120.4869, 720.9170
120.9690, 714.4808
121.4511, 708.4888
121.9333, 703.9990
122.4154, 701.4128
122.8975, 699.6133
123.3796, 697.9992
123.8617, 696.6553
124.3438, 694.7103
124.8260, 692.1776
125.3081, 688.6525
125.7902, 683.2397
126.2723, 675.0979
126.7544, 665.6120
127.2365, 657.9883
127.7187, 652.8563
128.2008, 648.7314
128.6829, 645.2628
129.1650, 642.2820
129.6471, 639.6924
130.1292, 637.5485
130.6114, 635.7702
131.0935, 633.1322
131.5756, 628.8079
132.0577, 624.3494
132.5398, 620.2274
133.0219, 616.3029
133.5041, 612.1439
133.9862, 607.2947
134.4683, 601.5377
134.9504, 596.4601
135.4325, 591.9869
135.9146, 588.0767
136.3968, 584.8629
136.8789, 582.2995
137.3610, 580.0709
137.8431, 577.9133
138.3252, 575.8470
138.8073, 573.6422
139.2895, 571.2789
139.7716, 568.7648
140.2537, 566.2011
140.7358, 563.6949
141.2179, 560.8419
141.7000, 556.9728
142.1821, 552.2098
142.6643, 547.2540
143.1464, 542.1388
143.6285, 537.0041
144.1106, 532.3011
144.5927, 528.0932
145.0748, 524.4852
145.5570, 521.4976
146.0391, 519.1322
146.5212, 517.0627
147.0033, 515.1354
147.4854, 513.3835
147.9675, 511.4101
148.4497, 508.9448
148.9318, 506.3239
149.4139, 503.7148
149.8960, 501.1624
150.3781, 498.5636
150.8602, 495.8008
151.3424, 492.8267
151.8245, 489.7130
152.3066, 486.3297
152.7887, 482.9092
153.2708, 479.4947
153.7529, 476.1400
154.2351, 473.0140
154.7172, 470.5749
155.1993, 469.9301
155.6814, 468.6809
156.1635, 466.3583
156.6456, 463.4816
157.1278, 460.7786
157.6099, 458.6403
158.0920, 456.7811
158.5741, 453.9264
159.0562, 448.6484
159.5383, 444.1016
160.0205, 441.4725
160.5026, 440.1907
160.9847, 438.9283
161.4668, 436.9311
161.9489, 434.3756
162.4310, 432.1656
162.9131, 430.5799
163.3953, 429.0497
163.8774, 427.2550
164.3595, 425.2143
164.8416, 423.1372
165.3237, 421.1337
165.8058, 419.1878
166.2880, 417.2597
166.7701, 415.4066
167.2522, 413.5107
167.7343, 411.4088
168.2164, 409.0604
168.6985, 406.7162
169.1807, 404.1814
169.6628, 401.8191
170.1449, 400.2333
170.6270, 400.0849
171.1091, 400.6060
171.5912, 399.8944
172.0734, 397.1684
172.5555, 394.6161
173.0376, 393.3902
173.5197, 392.7885
174.0018, 391.7374
174.4839, 389.4292
174.9661, 386.1833
175.4482, 384.0137
175.9303, 384.0869
176.4124, 384.0037
176.8945, 383.2420
177.3766, 381.8682
177.8588, 379.9913
178.3409, 377.5479
178.8230, 374.5215
179.3051, 372.6111
179.7872, 373.0239
180.2693, 373.3534
180.7515, 372.9010
181.2336, 371.7514
181.7157, 370.3088
182.1978, 368.8882
182.6799, 367.4812
183.1620, 366.1859
183.6441, 365.0980
184.1263, 364.0070
184.6084, 362.7457
185.0905, 361.3512
185.5726, 360.0472
186.0547, 359.0764
186.5368, 358.5026
187.0190, 357.7416
187.5011, 356.7134
187.9832, 355.5742
188.4653, 354.4241
188.9474, 353.2811
189.4296, 352.1281
189.9117, 350.9866
190.3938, 349.8495
190.8759, 348.5160
191.3580, 346.7007
191.8401, 344.8065
192.3223, 343.2988
192.8044, 342.2602
193.2865, 341.4389
193.7686, 340.7661
194.2507, 340.1646
194.7328, 339.3263
195.2150, 337.9903
195.6971, 336.3760
196.1792, 334.9003
196.6613, 333.6031
197.1434, 332.4335
197.6255, 331.4806
198.1077, 330.6313
198.5898, 329.5965
199.0719, 328.0980
199.5540, 326.2517
200.0361, 324.5185
200.5182, 322.6591
201.0004, 321.3229
201.4825, 321.0685
201.9646, 321.5667
202.4467, 322.0199
202.9288, 321.8982
203.4109, 321.2267
203.8930, 320.3799
204.3752, 319.0486
204.8573, 317.8755
205.3394, 317.2465
205.8215, 316.9935
206.3036, 316.6946
206.7857, 315.9987
207.2679, 314.8866
207.7500, 313.7606
208.2321, 312.6691
208.7142, 311.5151
209.1963, 310.0799
209.6784, 308.5228
210.1606, 307.2373
210.6427, 306.6137
211.1248, 306.7428
211.6069, 306.7539
212.0890, 306.6477
212.5711, 306.4374
213.0533, 306.1598
213.5354, 305.7897
214.0175, 305.2242
214.4996, 304.3195
214.9817, 302.9642
215.4638, 302.0890
215.9460, 302.0924
216.4281, 302.1085
216.9102, 301.7834
217.3923, 301.0819
217.8744, 300.0381
218.3565, 298.5811
218.8387, 296.6090
219.3208, 295.4463
219.8029, 295.8484
220.2850, 296.3399
220.7671, 296.0170
221.2492, 294.8654
221.7314, 293.3951
222.2135, 291.9640
222.6956, 290.5878
223.1777, 289.4518
223.6598, 288.6235
224.1419, 287.9775
224.6240, 287.4371
225.1062, 286.9947
225.5883, 286.6677
226.0704, 286.5042
226.5525, 286.4916
227.0346, 286.4646
227.5167, 286.3236
227.9989, 286.2216
228.4810, 286.3544
228.9631, 286.7388
229.4452, 287.1129
229.9273, 287.3166
230.4094, 287.3558
230.8916, 287.2505
231.3737, 286.9333
231.8558, 286.5096
232.3379, 286.0942
232.8200, 285.6911
233.3021, 285.2637
233.7843, 284.6965
234.2664, 284.1045
234.7485, 283.6880
235.2306, 283.6090
235.7127, 283.6323
236.1948, 283.3234
236.6770, 282.5286
237.1591, 282.0416
237.6412, 282.6019
238.1233, 283.5987
238.6054, 284.4088
239.0875, 284.8576
239.5697, 285.0140
240.0518, 284.9307
240.5339, 284.5300
241.0160, 284.1363
241.4981, 283.8785
241.9802, 283.6869
242.4624, 283.4682
242.9445, 283.1590
243.4266, 282.9107
243.9087, 283.1230
244.3908, 284.1533
244.8729, 284.6390
245.3550, 283.8492
245.8372, 282.5866
246.3193, 281.4588
246.8014, 280.6625
247.2835, 280.1353
247.7656, 279.8269
248.2477, 279.9263
248.7299, 279.7792
249.2120, 279.4853
249.6941, 278.8229
250.1762, 277.3609
250.6583, 275.0062
251.1404, 272.4830
251.6226, 271.1824
252.1047, 272.1429
252.5868, 271.9467
253.0689, 269.2275
253.5510, 266.1272
254.0331, 264.2184
254.5153, 263.8705
254.9974, 264.2605
255.4795, 264.1692
255.9616, 263.4493
256.4437, 262.5216
256.9258, 261.2159
257.4080, 259.8811
257.8901, 258.7761
258.3722, 257.9314
258.8543, 257.1448
259.3364, 256.0832
259.8185, 254.3857
260.3007, 253.3744
260.7828, 253.4478
261.2649, 253.7373
261.7470, 253.8617
262.2291, 253.6987
262.7112, 253.1767
263.1934, 252.1472
263.6755, 250.3512
264.1576, 249.0015
264.6397, 248.4546
265.1218, 247.9665
265.6039, 247.1962
266.0861, 246.1008
266.5682, 244.7406
267.0503, 243.1149
267.5324, 241.1176
268.0145, 239.6128
268.4966, 238.8824
268.9788, 238.2778
269.4609, 237.5853
269.9430, 236.7549
270.4251, 235.7247
270.9072, 234.3824
271.3893, 232.7102
271.8715, 231.5657
272.3536, 231.2608
272.8357, 231.0552
273.3178, 230.7566
273.7999, 230.3141
274.2820, 229.6177
274.7642, 228.5260
275.2463, 227.1071
275.7284, 226.2633
276.2105, 226.2911
276.6926, 226.4153
277.1747, 226.4697
277.6568, 226.4249
278.1389, 226.2289
278.6211, 225.8362
279.1032, 225.2974
279.5853, 224.8249
280.0674, 224.3506
280.5495, 224.0014
281.0316, 223.8926
281.5138, 223.9213
281.9959, 223.9237
282.4780, 223.8403
282.9601, 223.6593
283.4422, 223.3179
283.9243, 222.6485
284.4065, 222.1533
284.8886, 221.9722
285.3707, 222.0172
285.8528, 222.2082
286.3349, 222.5387
286.8170, 222.8909
287.2992, 223.0566
287.7813, 222.9996
288.2634, 222.9026
288.7455, 222.7221
289.2276, 222.5438
289.7097, 222.4906
290.1919, 222.5937
290.6740, 222.7518
291.1561, 222.8387
291.6382, 222.8394
292.1203, 222.8857
292.6024, 223.2079
293.0846, 223.4581
293.5667, 223.2092
294.0488, 222.4141
294.5309, 221.5181
295.0130, 220.9444
295.4951, 220.6985
295.9773, 220.3130
296.4594, 219.3491
296.9415, 218.5450
297.4236, 218.7346
297.9057, 219.8417
298.3878, 220.7499
298.8700, 220.5786
299.3521, 219.4978
299.8342, 218.8530
300.3163, 219.1042
300.7984, 219.3669
301.2805, 219.1242
301.7627, 218.4398
302.2448, 217.6066
302.7269, 216.7173
303.2090, 215.8218
303.6911, 215.0523
304.1732, 214.4241
304.6554, 213.8736
305.1375, 213.3903
305.6196, 212.9653
306.1017, 212.5798
306.5838, 212.2354
307.0659, 211.9158
307.5481, 211.6140
308.0302, 211.3677
308.5123, 211.0178
308.9944, 210.5578
309.4765, 209.9535
309.9586, 209.0911
310.4408, 207.9031
310.9229, 206.6276
311.4050, 205.4850
311.8871, 204.4263
312.3692, 203.8858
312.8513, 204.5196
313.3335, 205.4541
313.8156, 205.5576
314.2977, 204.6442
314.7798, 203.5013
315.2619, 202.8516
315.7440, 202.6611
316.2262, 202.3277
316.7083, 201.6024
317.1904, 200.8587
317.6725, 200.4163
318.1546, 200.2724
318.6367, 200.2467
319.1188, 200.2832
319.6010, 200.3317
320.0831, 200.1992
320.5652, 199.7802
321.0473, 199.2927
321.5294, 198.8762
322.0115, 198.4975
322.4937, 197.9582
322.9758, 197.0367
323.4579, 196.0649
323.9400, 195.9779
324.4221, 197.2294
324.9042, 198.2211
325.3864, 198.3058
325.8685, 197.7627
326.3506, 196.9939
326.8327, 196.0352
327.3148, 195.2205
327.7969, 195.2478
328.2791, 196.3034
328.7612, 196.9601
329.2433, 196.5383
329.7254, 195.7749
330.2075, 195.6108
330.6896, 196.2083
331.1718, 196.9173
331.6539, 197.0545
332.1360, 196.5631
332.6181, 196.3013
333.1002, 196.4609
333.5823, 196.7335
334.0645, 196.9440
334.5466, 197.0708
335.0287, 197.0850
335.5108, 196.9239
335.9929, 196.6305
336.4750, 196.5186
336.9572, 196.7237
337.4393, 196.9417
337.9214, 197.0553
338.4035, 197.0837
338.8856, 197.0404
339.3677, 196.8994
339.8499, 196.7628
340.3320, 196.9522
340.8141, 197.7257
341.2962, 198.3064
341.7783, 198.5229
342.2604, 198.4754
342.7426, 198.1970
343.2247, 197.6973
343.7068, 197.2237
344.1889, 197.1580
344.6710, 197.7475
345.1531, 198.0220
345.6353, 197.7560
346.1174, 197.3258
346.5995, 197.0017
347.0816, 196.8121
347.5637, 196.6455
348.0458, 196.3952
348.5280, 196.0524
349.0101, 195.8454
349.4922, 195.9862
349.9743, 196.0287
350.4564, 195.7513
350.9385, 195.2257
351.4207, 194.5908
351.9028, 193.9011
352.3849, 193.2292
352.8670, 192.8948
353.3491, 193.3237
353.8312, 193.5617
354.3134, 193.3463
354.7955, 192.9395
355.2776, 192.6205
355.7597, 192.4908
356.2418, 192.5258
356.7239, 192.7340
357.2061, 193.5638
357.6882, 193.5745
358.1703, 191.9599
358.6524, 190.2062
359.1345, 189.2478
359.6166, 189.1945
360.0987, 189.7516
360.5808, 190.7355
361.0630, 192.2570
361.5451, 193.1002
362.0272, 192.7432
362.5093, 192.2972
362.9914, 192.1240
363.4735, 192.1335
363.9557, 192.0667
364.4378, 191.7474
364.9199, 191.2879
365.4020, 191.1837
365.8841, 191.8718
366.3662, 192.3215
366.8484, 192.3046
367.3305, 192.0619
367.8126, 191.7842
368.2947, 191.5464
368.7768, 191.3826
369.2589, 191.3570
369.7411, 191.5152
370.2232, 191.6931
370.7053, 191.9688
371.1874, 192.1924
371.6695, 192.3112
372.1516, 192.3069
372.6338, 192.1618
373.1159, 191.8266
373.5980, 191.3088
374.0801, 190.8318
374.5622, 190.2213
375.0443, 189.8936
375.5265, 190.1408
376.0086, 190.7037
376.4907, 191.2332
376.9728, 191.6086
377.4549, 191.7447
377.9370, 191.3264
378.4192, 190.0303
378.9013, 189.1037
379.3834, 189.1603
379.8655, 189.5495
380.3476, 189.8242
380.8297, 189.8933
381.3119, 189.8604
381.7940, 189.7900
382.2761, 189.6844
382.7582, 189.6461
383.2403, 189.6638
383.7224, 189.7947
384.2046, 190.1740
384.6867, 190.7107
385.1688, 191.0895
385.6509, 190.9808
386.1330, 190.6208
386.6151, 190.6031
387.0973, 191.0374
387.5794, 191.4151
388.0615, 191.3049
388.5436, 190.9924
389.0257, 190.8775
389.5078, 191.0540
389.9900, 191.4057
390.4721, 191.9271
390.9542, 192.5842
391.4363, 193.0790
391.9184, 193.2407
392.4005, 193.2868
392.8827, 193.5843
393.3648, 194.1696
393.8469, 194.5577
394.3290, 194.4244
394.8111, 194.0206
395.2932, 193.7258
395.7754, 193.5933
396.2575, 193.5509
396.7396, 193.4896
397.2217, 193.4485
397.7038, 193.7076
398.1859, 194.7924
398.6681, 195.7348
399.1501, 195.6659
399.6323, 194.8550
400.1144, 194.3421
400.5965, 194.7069
401.0786, 195.6064
401.5607, 196.0234
402.0428, 195.6130
402.5250, 195.4036
403.0071, 195.7388
403.4892, 196.2898
403.9713, 196.7587
404.4534, 197.0555
404.9355, 197.0885
405.4177, 196.6958
405.8998, 195.7373
406.3819, 195.0730
406.8640, 194.7292
407.3461, 194.6129
407.8282, 194.8698
408.3104, 195.3238
408.7925, 195.5858
409.2746, 195.4060
409.7567, 194.8625
410.2388, 194.3113
410.7209, 193.6923
411.2031, 193.1510
411.6852, 192.5388
412.1673, 192.0928
412.6494, 192.2574
413.1315, 193.0538
413.6136, 193.7868
414.0958, 193.3434
414.5779, 191.2022
415.0600, 189.9787
415.5421, 190.5275
416.0242, 191.2309
416.5063, 191.6941
416.9885, 191.8136
417.4706, 191.4365
417.9527, 190.2944
418.4348, 188.7436
418.9169, 188.0767
419.3990, 188.7287
419.8812, 189.3161
420.3633, 189.3172
420.8454, 189.1149
421.3275, 189.0859
421.8096, 189.3261
422.2917, 189.5495
422.7739, 189.3690
423.2560, 188.8135
423.7381, 188.5190
424.2202, 188.7410
424.7023, 189.0218
425.1844, 188.9735
425.6666, 188.6775
426.1487, 188.4287
426.6308, 188.3008
427.1129, 188.3130
427.5950, 188.5674
428.0771, 189.0835
428.5593, 189.5334
429.0414, 189.7921
429.5235, 189.8320
430.0056, 189.6203
430.4877, 189.0014
430.9698, 188.4874
431.4520, 188.3669
431.9341, 188.5263
432.4162, 188.8135
432.8983, 189.2222
433.3804, 189.5163
433.8625, 189.3439
434.3447, 188.6147
434.8268, 188.1762
435.3089, 188.1858
435.7910, 188.3824
436.2731, 188.7001
436.7552, 189.0726
437.2374, 189.3384
437.7195, 189.3967
438.2016, 189.2906
438.6837, 189.1827
439.1658, 188.9622
439.6479, 188.8848
440.1301, 189.0481
440.6122, 189.3176
441.0943, 189.5704
441.5764, 189.7803
442.0585, 190.0127
442.5406, 190.3929
443.0227, 191.0074
443.5049, 191.1444
443.9870, 190.2788
444.4691, 189.4753
444.9512, 188.9047
445.4333, 188.6501
445.9154, 188.9082
446.3976, 189.8465
446.8797, 191.0152
447.3618, 191.3353
447.8439, 190.4755
448.3260, 189.7512
448.8081, 189.7071
449.2903, 189.6463
449.7724, 188.9801
450.2545, 187.7524
450.7366, 186.6467
451.2187, 186.3164
451.7008, 186.5667
452.1830, 186.5912
452.6651, 186.3545
453.1472, 185.9422
453.6293, 185.4115
454.1114, 184.7319
454.5935, 183.7967
455.0757, 182.4732
455.5578, 181.1116
456.0399, 179.8612
456.5220, 178.7812
457.0041, 178.2033
457.4862, 178.3909
457.9684, 178.7504
458.4505, 178.4462
458.9326, 177.4946
459.4147, 176.5853
459.8968, 175.6934
460.3789, 175.0028
460.8611, 174.9759
461.3432, 175.4323
461.8253, 175.3362
462.3074, 173.9091
462.7895, 171.5861
463.2716, 170.1570
463.7538, 170.3893
464.2359, 170.4438
464.7180, 170.0536
465.2001, 169.4191
465.6822, 168.7422
466.1643, 168.0607
466.6465, 167.2876
467.1286, 166.2995
467.6107, 165.0447
468.0928, 163.9952
468.5749, 163.0918
469.0570, 162.4648
469.5392, 162.3307
470.0213, 162.4524
470.5034, 162.4962
470.9855, 162.3147
471.4676, 162.0117
471.9497, 161.8088
472.4319, 161.7829
472.9140, 161.5180
473.3961, 160.6323
473.8782, 159.7686
474.3603, 159.2492
474.8424, 159.0757
475.3246, 159.1409
475.8067, 159.5457
476.2888, 160.0918
476.7709, 160.2942
477.2530, 160.0902
477.7351, 159.9539
478.2173, 160.3099
478.6994, 160.7415
479.1815, 160.5462
479.6636, 159.5209
480.1457, 158.5183
480.6278, 157.8930
481.1100, 157.5961
481.5920, 157.6262
482.0742, 157.9975
482.5563, 158.3845
483.0384, 158.5102
483.5205, 158.3652
484.0026, 158.1413
484.4847, 157.5252
484.9669, 157.1705
485.4490, 157.6564
485.9311, 158.5178
486.4132, 158.8856
486.8953, 158.4405
487.3774, 157.6305
487.8596, 157.1878
488.3417, 157.2201
488.8238, 157.3355
489.3059, 157.6810
489.7880, 157.9565
490.2701, 157.9691
490.7523, 157.7944
491.2344, 157.6229
491.7165, 157.5718
492.1986, 157.5934
492.6807, 157.5927
493.1628, 157.6541
493.6450, 157.4599
494.1271, 156.5616
494.6092, 155.6629
495.0913, 155.3146
495.5734, 155.5024
496.0555, 155.7012
496.5377, 155.5453
497.0198, 155.1264
497.5019, 154.6867
497.9840, 154.2327
498.4661, 153.7419
498.9482, 153.1380
499.4304, 152.5094
499.9125, 152.0224
500.3946, 151.7068
500.8767, 151.4763
501.3588, 151.4200
501.8409, 151.3839
502.3231, 151.0471
502.8052, 150.3421
503.2873, 149.5277
503.7694, 148.8120
504.2515, 148.1943
504.7336, 147.8081
505.2158, 147.7613
505.6979, 147.7965
506.1800, 147.9916
506.6621, 148.1593
507.1442, 147.9491
507.6263, 147.2525
508.1085, 146.4093
508.5906, 145.9492
509.0727, 145.9650
509.5548, 146.0256
510.0369, 146.4476
510.5190, 146.5948
511.0012, 145.9422
511.4833, 144.8720
511.9654, 144.1468
512.4475, 144.1998
512.9296, 144.5987
513.4117, 144.5393
513.8939, 143.9552
514.3760, 143.4157
514.8581, 142.9917
515.3402, 142.7096
515.8223, 142.6560
516.3044, 142.7876
516.7866, 142.8250
517.2687, 142.6223
517.7508, 142.2788
518.2329, 141.8429
518.7150, 141.3356
519.1971, 141.0292
519.6793, 141.1510
520.1614, 141.4333
520.6435, 141.2041
521.1256, 140.2528
521.6077, 139.5153
522.0898, 139.2401
522.5720, 139.1780
523.0541, 139.1751
523.5362, 139.1877
524.0183, 139.1482
524.5004, 138.9870
524.9825, 138.7622
525.4647, 138.7901
525.9468, 139.4482
526.4289, 139.8137
526.9110, 139.6603
527.3931, 139.3041
527.8752, 138.9053
528.3574, 138.5415
528.8395, 138.3555
529.3216, 138.5996
529.8037, 139.1514
530.2858, 139.2040
530.7679, 138.5378
531.2501, 137.8801
531.7322, 137.5433
532.2143, 137.3757
532.6964, 137.2033
533.1785, 136.9782
533.6606, 136.9114
534.1428, 137.2884
534.6249, 137.8928
535.1070, 138.2459
535.5891, 138.2757
536.0712, 138.2157
536.5533, 138.2722
537.0355, 138.3868
537.5176, 138.2273
537.9997, 137.4217
538.4818, 136.8209
538.9639, 136.8674
539.4460, 137.1563
539.9282, 137.1420
540.4103, 136.7344
540.8924, 136.2755
541.3745, 136.1360
541.8566, 136.3274
542.3387, 136.4393
542.8209, 136.4661
543.3029, 136.4105
543.7850, 136.1239
544.2672, 135.8274
544.7493, 135.8100
545.2314, 136.1368
545.7135, 136.5438
546.1956, 136.7299
546.6777, 136.7167
547.1599, 136.7842
547.6420, 137.0475
548.1241, 137.1794
548.6062, 136.8472
549.0883, 136.2748
549.5704, 135.7860
550.0526, 135.3825
550.5347, 135.1829
551.0168, 135.4495
551.4989, 135.9400
551.9810, 136.1158
552.4631, 135.8600
552.9453, 135.4711
553.4274, 135.2004
553.9095, 135.0482
554.3916, 135.0158
554.8737, 135.2259
555.3558, 135.3892
555.8380, 135.3482
556.3201, 135.2521
556.8022, 135.3310
557.2843, 135.6225
557.7664, 135.9116
558.2485, 135.9468
558.7307, 135.7207
559.2128, 135.4487
559.6949, 135.0734
560.1770, 134.7391
560.6591, 134.4817
561.1412, 134.2919
561.6234, 134.1650
562.1055, 134.1037
562.5876, 134.0712
563.0697, 134.2208
563.5518, 134.3855
564.0339, 133.8230
564.5161, 132.2705
564.9982, 130.9083
565.4803, 130.7291
565.9624, 131.4509
566.4445, 131.6980
566.9266, 131.0611
567.4088, 130.5359
567.8909, 130.5693
568.3730, 130.8503
568.8551, 131.0744
569.3372, 131.1478
569.8193, 130.9598
570.3015, 130.3621
570.7836, 129.3841
571.2657, 128.6404
571.7478, 128.1441
572.2299, 127.8870
572.7120, 128.0615
573.1942, 128.3401
573.6763, 128.3940
574.1584, 128.1884
574.6405, 127.9677
575.1226, 127.9375
575.6047, 128.0678
576.0869, 128.2938
576.5690, 128.6876
577.0511, 128.8681
577.5332, 128.5830
578.0153, 128.0056
578.4974, 127.3547
578.9796, 126.5396
579.4617, 126.0804
579.9438, 126.4553
580.4259, 127.1217
580.9080, 127.5418
581.3901, 127.6503
581.8723, 127.4560
582.3544, 126.9218
582.8365, 126.1690
583.3186, 125.6057
583.8007, 125.3238
584.2828, 125.1042
584.7650, 125.0225
585.2471, 124.9311
585.7292, 124.7120
586.2113, 124.3924
586.6934, 124.0541
587.1755, 123.6999
587.6577, 123.4505
588.1398, 123.6932
588.6219, 124.5352
589.1040, 125.1310
589.5861, 125.2010
590.0682, 125.0359
590.5504, 124.8931
591.0325, 124.7657
591.5146, 124.6091
591.9967, 124.3403
592.4788, 124.0953
592.9609, 124.0631
593.4431, 124.1574
593.9252, 124.0585
594.4073, 123.6297
594.8894, 123.1899
595.3715, 123.1926
595.8536, 123.7272
596.3358, 124.3197
596.8179, 125.2393
597.3000, 125.9120
597.7821, 126.0209
598.2642, 125.8003
598.7463, 125.5936
599.2285, 125.5167
599.7106, 125.4292
600.1927, 125.0316
600.6748, 124.3492
601.1569, 124.2022
601.6390, 124.8477
602.1212, 125.5546
602.6033, 125.9202
603.0854, 126.0756
603.5675, 126.2135
604.0496, 126.4055
604.5317, 126.4374
605.0139, 125.8910
605.4960, 125.2545
605.9781, 125.4543
606.4602, 126.4941
606.9423, 127.3290
607.4244, 127.1544
607.9066, 126.2283
608.3887, 125.7153
608.8708, 125.9251
609.3529, 126.1322
609.8350, 126.4143
610.3171, 126.6008
610.7993, 126.4840
611.2814, 126.1479
611.7635, 125.8954
612.2456, 125.9406
612.7277, 126.1480
613.2098, 126.2417
613.6920, 126.2151
614.1741, 126.1411
614.6562, 125.9906
615.1383, 125.8590
615.6204, 125.7940
616.1025, 125.8063
616.5847, 126.0206
617.0668, 126.9116
617.5489, 127.5673
618.0310, 127.1909
618.5131, 126.1929
618.9952, 125.3651
619.4774, 124.9508
619.9595, 124.7973
620.4416, 124.7029
620.9237, 124.6431
621.4058, 125.0333
621.8879, 126.7508
622.3701, 127.8265
622.8522, 127.4475
623.3343, 126.4718
623.8164, 125.7160
624.2985, 125.3586
624.7806, 125.1875
625.2628, 125.0080
625.7448, 124.8891
626.2269, 125.1400
626.7090, 125.8180
627.1912, 126.2248
627.6733, 125.9774
628.1554, 125.3387
628.6375, 124.6829
629.1196, 123.8723
629.6017, 123.6242
630.0839, 124.6777
630.5660, 125.7599
631.0481, 125.9204
631.5302, 125.3915
632.0123, 124.8224
632.4944, 124.5124
632.9766, 124.3961
633.4587, 124.4357
633.9408, 124.7221
634.4229, 124.6642
634.9050, 123.8303
635.3871, 123.2142
635.8693, 123.3717
636.3514, 123.9584
636.8335, 124.4870
637.3156, 124.8649
637.7977, 125.0703
638.2798, 124.8593
638.7620, 124.5330
639.2441, 124.8179
639.7262, 125.7636
640.2083, 126.5063
640.6904, 126.4254
641.1725, 125.7946
641.6547, 125.5309
642.1368, 125.9569
642.6189, 126.2906
643.1010, 126.3986
643.5831, 126.5314
644.0652, 126.9454
644.5474, 127.5156
645.0295, 127.8799
645.5116, 127.8147
645.9937, 127.6124
646.4758, 127.7784
646.9579, 128.3094
647.4401, 128.7540
647.9222, 128.9796
648.4043, 129.2473
648.8864, 129.7621
649.3685, 130.4820
649.8506, 131.2686
650.3328, 132.1819
650.8149, 133.0529
651.2970, 133.7000
651.7791, 134.3302
652.2612, 135.2326
652.7433, 136.4030
653.2255, 137.5680
653.7076, 138.5013
654.1897, 139.3212
654.6718, 140.5541
655.1539, 142.5479
655.6360, 144.0985
656.1182, 144.6962
656.6003, 145.0920
657.0824, 145.5647
657.5645, 146.1651
658.0466, 146.9747
658.5287, 148.1049
659.0109, 149.3270
659.4930, 150.4442
659.9751, 151.4776
660.4572, 152.5093
660.9393, 153.5552
661.4214, 154.5592
661.9036, 155.4711
662.3857, 156.3002
662.8678, 157.1243
663.3499, 158.0816
663.8320, 158.8487
664.3141, 159.3908
664.7963, 159.7434
665.2784, 159.8302
665.7605, 159.7391
666.2426, 159.7849
666.7247, 160.3032
667.2068, 160.8305
667.6890, 160.4228
668.1711, 159.1066
668.6532, 157.7727
669.1353, 156.5802
669.6174, 155.5268
670.0995, 154.7444
670.5817, 154.1656
671.0638, 153.2068
671.5459, 151.6420
672.0280, 149.9637
672.5101, 148.2854
672.9922, 146.6093
673.4744, 144.9503
673.9565, 143.2956
674.4386, 141.5208
674.9207, 139.4305
675.4028, 137.3000
675.8849, 136.1472
676.3671, 136.2420
676.8492, 136.1245
677.3313, 135.5036
677.8134, 134.5847
678.2955, 133.4472
678.7776, 132.1546
679.2598, 130.9318
679.7419, 129.6664
680.2240, 128.6925
680.7061, 128.3967
681.1882, 128.4480
681.6703, 128.3269
682.1525, 127.9485
682.6346, 127.5184
683.1167, 127.2082
683.5988, 126.9819
684.0809, 126.6481
684.5630, 126.1340
685.0452, 125.6739
685.5273, 125.3490
686.0094, 125.0449
686.4915, 124.5913
686.9736, 124.0987
687.4557, 123.9263
687.9379, 124.4203
688.4200, 124.8994
688.9021, 124.6113
689.3842, 123.8690
689.8663, 123.4112
690.3484, 123.3669
690.8306, 123.4276
691.3127, 123.3135
691.7948, 123.1294
692.2769, 123.4343
692.7590, 124.9303
693.2411, 125.7839
693.7233, 125.4939
694.2054, 124.9630
694.6875, 124.6532
695.1696, 124.5633
695.6517, 124.5488
696.1339, 124.5366
696.6160, 124.6089
697.0981, 124.9618
697.5802, 125.4829
698.0623, 125.7420
698.5444, 125.6582
699.0266, 125.5291
699.5087, 125.5649
699.9908, 125.7132
700.4729, 125.7737
700.9550, 125.5949
701.4371, 125.5601
701.9193, 125.7630
702.4014, 126.0273
702.8835, 126.2048
703.3656, 126.3643
703.8477, 126.6601
704.3298, 127.1543
704.8120, 127.8210
705.2941, 128.8970
705.7762, 130.1753
706.2583, 130.4753
706.7404, 129.5489
707.2225, 128.6078
707.7046, 128.3362
708.1867, 128.5334
708.6688, 128.7019
709.1509, 128.8089
709.6331, 128.9706
710.1152, 129.2777
710.5973, 129.5603
711.0794, 129.7519
711.5615, 129.8363
712.0436, 129.7645
712.5258, 129.5230
713.0079, 129.2674
713.4900, 129.2176
713.9721, 129.3225
714.4542, 129.2760
714.9363, 129.0442
715.4185, 128.8299
715.9006, 128.7456
716.3827, 128.7107
716.8648, 128.5345
717.3469, 128.1425
717.8290, 128.0612
718.3112, 128.8427
718.7933, 129.4027
719.2754, 128.9688
719.7575, 128.0710
720.2396, 127.5246
720.7217, 127.5191
721.2039, 127.5826
721.6860, 127.1660
722.1681, 126.4645
722.6502, 126.3704
723.1323, 126.9903
723.6144, 127.3036
724.0966, 126.8858
724.5787, 126.1867
725.0608, 125.7183
725.5429, 125.4724
726.0250, 125.1782
726.5071, 124.7440
726.9893, 124.3521
727.4714, 124.0300
727.9535, 123.8074
728.4356, 123.7319
728.9177, 123.7984
729.3998, 123.9710
729.8820, 124.2635
730.3641, 124.5713
730.8462, 124.6461
731.3283, 124.4820
731.8104, 124.1860
732.2925, 123.6605
732.7747, 123.2849
733.2568, 123.4735
733.7389, 124.0972
734.2210, 124.4483
734.7031, 124.4099
735.1852, 124.2781
735.6674, 124.0806
736.1495, 123.8360
736.6316, 123.4491
737.1137, 123.0305
737.5958, 122.8875
738.0779, 123.1917
738.5601, 123.6387
739.0422, 123.7363
739.5243, 123.5321
740.0064, 123.5468
740.4885, 123.9057
740.9706, 124.0771
741.4528, 123.6507
741.9349, 122.9315
742.4170, 122.6331
742.8991, 122.9177
743.3812, 123.0235
743.8633, 122.5871
744.3455, 122.2735
744.8276, 122.6068
745.3097, 123.2283
745.7918, 123.5774
746.2739, 123.4971
746.7560, 123.2206
747.2382, 122.8558
747.7203, 122.4900
748.2024, 122.4350
748.6845, 122.6982
749.1666, 122.9954
749.6487, 123.2476
750.1309, 123.4651
750.6130, 123.6986
751.0951, 123.9590
751.5772, 123.9314
752.0593, 123.0712
752.5414, 122.6502
753.0236, 123.2944
753.5057, 124.2413
753.9878, 124.9235
754.4699, 125.2351
754.9520, 125.1668
755.4341, 124.5482
755.9163, 123.8952
756.3984, 124.1383
756.8805, 125.0175
757.3626, 125.3129
757.8447, 124.7966
758.3268, 124.2095
758.8090, 124.0926
759.2911, 124.2822
759.7732, 124.2108
760.2553, 123.5016
760.7374, 123.2301
761.2195, 123.8213
761.7017, 124.3756
762.1838, 124.3339
762.6659, 124.0247
763.1480, 124.0250
763.6301, 124.5036
764.1122, 125.0408
764.5944, 125.4497
765.0765, 125.6569
765.5586, 125.3814
766.0407, 124.7353
766.5228, 124.3703
767.0049, 124.5464
767.4871, 124.9463
767.9692, 125.1579
768.4513, 125.1727
768.9334, 125.2035
769.4155, 125.0675
769.8976, 125.2516
770.3798, 126.2201
770.8619, 127.2510
771.3440, 127.8518
771.8261, 128.0023
772.3082, 127.7919
772.7903, 126.9221
773.2725, 126.1442
773.7546, 126.0713
774.2367, 126.3924
774.7188, 126.6699
775.2009, 126.8288
775.6830, 126.9273
776.1652, 126.9984
776.6473, 127.0658
777.1294, 127.2335
777.6115, 127.5592
778.0936, 127.5455
778.5757, 126.8336
779.0579, 126.3921
779.5400, 127.0268
780.0221, 128.1444
780.5042, 128.7385
780.9863, 128.6949
781.4684, 128.5833
781.9506, 128.4735
782.4327, 128.4054
782.9148, 128.4928
783.3969, 128.6074
783.8790, 128.4039
784.3611, 127.8687
784.8433, 127.6023
785.3254, 128.3634
785.8075, 129.6876
786.2896, 130.0632
786.7717, 129.4734
787.2538, 129.0120
787.7360, 128.9584
788.2181, 129.0779
788.7002, 129.1892
789.1823, 129.2896
789.6644, 129.3506
790.1465, 129.2908
790.6286, 129.3109
791.1107, 129.6097
791.5928, 129.8228
792.0750, 129.6221
792.5571, 129.1693
793.0392, 128.8046
793.5213, 128.6424
794.0034, 128.6577
794.4855, 128.9031
794.9677, 129.2802
795.4498, 129.5840
795.9319, 129.8257
796.4140, 130.1926
796.8961, 130.7802
797.3782, 131.3470
797.8604, 131.5454
798.3425, 131.3593
798.8246, 131.1742
799.3067, 130.9105
799.7888, 130.7889
800.2709, 130.9641
800.7531, 131.2236
801.2352, 131.4215
801.7173, 131.5650
802.1994, 131.7230
802.6815, 132.0326
803.1636, 132.1873
803.6458, 131.7750
804.1279, 131.2791
804.6100, 131.4157
805.0921, 132.0535
805.5742, 132.4484
806.0563, 132.1817
806.5385, 131.6899
807.0206, 131.7095
807.5027, 132.1964
807.9848, 132.5523
808.4669, 132.7606
808.9490, 132.7854
809.4312, 132.5307
809.9133, 132.1932
810.3954, 132.0845
810.8775, 132.2563
811.3596, 132.3226
811.8417, 132.0381
812.3239, 131.9613
812.8060, 132.6589
813.2881, 133.3343
813.7702, 132.9958
814.2523, 131.8418
814.7344, 131.0474
815.2166, 131.2915
815.6987, 131.9181
816.1808, 132.3205
816.6629, 132.5710
817.1450, 132.8540
817.6271, 133.1750
818.1093, 133.3308
818.5914, 133.1754
819.0735, 132.9679
819.5556, 133.3125
820.0377, 134.3958
820.5198, 134.8002
821.0020, 134.1734
821.4841, 133.5316
821.9662, 133.1992
822.4483, 133.0779
822.9304, 133.1124
823.4125, 133.2934
823.8947, 133.4170
824.3768, 133.3816
824.8589, 133.3570
825.3410, 133.3481
825.8231, 133.4360
826.3052, 133.7890
826.7874, 134.3394
827.2695, 134.8005
827.7516, 135.0004
828.2337, 135.1066
828.7158, 135.4538
829.1979, 135.9228
829.6801, 135.9297
830.1622, 135.4216
830.6443, 134.9226
831.1264, 134.6554
831.6085, 134.6601
832.0906, 135.0945
832.5728, 136.1061
833.0549, 136.4415
833.5370, 135.6000
834.0191, 134.7890
834.5012, 134.1607
834.9833, 133.7612
835.4655, 133.6361
835.9476, 133.7759
836.4297, 134.1296
836.9118, 134.8394
837.3939, 135.5098
837.8760, 135.9447
838.3582, 136.2158
838.8403, 136.3954
839.3224, 136.4928
839.8045, 136.5074
840.2866, 136.4398
840.7687, 136.2545
841.2509, 135.7574
841.7330, 135.0642
842.2151, 134.8902
842.6972, 135.2681
843.1793, 135.8695
843.6614, 136.6832
844.1436, 137.3682
844.6257, 137.5059
845.1078, 137.1065
845.5899, 136.6298
846.0720, 135.5353
846.5541, 135.1764
847.0363, 136.4931
847.5184, 137.7768
848.0005, 137.7237
848.4826, 136.8535
848.9647, 136.4929
849.4468, 137.0988
849.9290, 137.6821
850.4111, 137.6287
850.8932, 137.3591
851.3753, 137.3033
851.8574, 137.3894
852.3395, 137.4181
852.8217, 137.3163
853.3038, 137.0436
853.7859, 136.5005
854.2680, 135.8120
854.7501, 135.3919
855.2322, 135.2395
855.7144, 135.0741
856.1965, 134.7877
856.6786, 134.7540
857.1607, 135.3963
857.6428, 136.3969
858.1249, 136.7102
858.6071, 135.8995
859.0892, 135.3423
859.5713, 135.1498
860.0534, 135.0714
860.5355, 135.0323
861.0176, 135.0508
861.4998, 135.2467
861.9819, 135.6036
862.4640, 135.6928
862.9461, 135.0612
863.4282, 134.4081
863.9103, 134.2392
864.3925, 134.3321
864.8746, 134.3883
865.3567, 134.3757
865.8388, 134.4275
866.3209, 134.6380
866.8030, 134.8231
867.2852, 134.6097
867.7673, 134.0991
868.2494, 133.8959
868.7315, 134.0479
869.2136, 134.0383
869.6957, 133.6257
870.1779, 133.0494
870.6600, 132.6213
871.1421, 132.3415
871.6242, 132.1003
872.1063, 131.9441
872.5884, 131.7444
873.0705, 131.2352
873.5526, 130.9088
874.0347, 131.4016
874.5168, 132.2636
874.9990, 132.3416
875.4811, 131.1989
875.9632, 130.0429
876.4453, 129.0101
876.9274, 128.3910
877.4095, 128.7889
877.8917, 129.6079
878.3738, 129.7953
878.8559, 129.1599
879.3380, 128.4157
879.8201, 128.1690
880.3022, 128.0708
880.7844, 127.3939
881.2665, 126.3592
881.7486, 125.8319
882.2307, 125.9296
882.7128, 126.1973
883.1949, 126.3819
883.6771, 126.4141
884.1592, 126.0556
884.6413, 125.1861
885.1234, 124.8687
885.6055, 125.3451
886.0876, 125.7949
886.5698, 126.0900
887.0519, 126.0741
887.5340, 125.4015
888.0161, 124.1318
888.4982, 123.1824
888.9803, 122.7941
889.4625, 122.4241
889.9446, 121.8328
890.4267, 121.3666
890.9088, 121.3711
891.3909, 121.6541
891.8730, 121.8230
892.3552, 121.7687
892.8373, 121.6618
893.3194, 121.6282
893.8015, 121.5827
894.2836, 121.5549
894.7657, 121.4129
895.2479, 120.7264
895.7300, 119.5228
896.2121, 118.5265
896.6942, 118.3175
897.1763, 118.5149
897.6584, 118.3920
898.1406, 117.9692
898.6227, 117.3820
899.1048, 116.6157
899.5869, 116.0391
900.0690, 115.8484
900.5511, 115.8696
901.0333, 115.8628
901.5154, 115.8293
901.9975, 115.7356
902.4796, 115.6422
902.9617, 115.3703
903.4438, 114.6314
903.9260, 113.9552
904.4081, 113.7058
904.8902, 113.7934
905.3723, 114.0591
905.8544, 114.7165
906.3365, 114.8911
906.8187, 113.7979
907.3008, 112.7678
907.7829, 112.7906
908.2650, 113.2749
908.7471, 113.3290
909.2292, 112.8533
909.7114, 112.4192
910.1935, 112.4414
910.6756, 112.5217
911.1577, 112.0833
911.6398, 111.4824
912.1219, 111.5098
912.6041, 112.0909
913.0862, 112.5142
913.5683, 112.4437
914.0504, 112.0446
914.5325, 111.4228
915.0146, 110.6611
915.4968, 110.2594
915.9789, 110.2309
916.4610, 110.1775
916.9431, 109.9881
917.4252, 109.8070
917.9073, 109.7630
918.3895, 109.8119
918.8716, 109.7810
919.3537, 109.5820
919.8358, 109.5363
920.3179, 109.8264
920.8000, 110.0049
921.2822, 109.7336
921.7643, 109.3650
922.2464, 109.3690
922.7285, 109.7231
923.2106, 109.7892
923.6927, 109.3159
924.1749, 108.7654
924.6570, 107.9711
925.1391, 107.4120
925.6212, 107.5677
926.1033, 108.2291
926.5854, 109.0468
927.0676, 109.9349
927.5497, 110.4143
928.0318, 109.9474
928.5139, 109.1181
928.9960, 108.3538
929.4781, 107.7278
929.9603, 107.3615
930.4424, 107.2497
930.9245, 107.2625
931.4066, 107.3186
931.8887, 107.4458
932.3708, 107.8220
932.8530, 108.3129
933.3351, 108.2775
933.8172, 107.7131
934.2993, 107.1149
934.7814, 106.6443
935.2635, 106.4729
935.7457, 106.8566
936.2278, 107.6625
936.7099, 108.0849
937.1920, 108.0292
937.6741, 108.0009
938.1563, 108.0732
938.6384, 108.1373
939.1205, 108.0991
939.6026, 108.0476
940.0847, 108.1938
940.5668, 108.6323
941.0490, 108.7100
941.5311, 107.9886
942.0132, 107.5213
942.4953, 107.6837
942.9774, 108.0064
943.4595, 108.1952
943.9417, 108.2590
944.4238, 108.2699
944.9059, 108.2388
945.3880, 108.1678
945.8701, 107.8958
946.3522, 107.7552
946.8344, 108.2506
947.3165, 108.8557
947.7986, 108.6239
948.2807, 107.6629
948.7628, 107.2043
949.2449, 108.1141
949.7271, 109.2093
950.2092, 109.3412
950.6913, 108.9408
951.1734, 108.5379
951.6555, 108.2321
952.1376, 108.1356
952.6198, 108.2796
953.1019, 108.5796
953.5840, 109.0316
954.0661, 109.4870
954.5482, 109.5017
955.0303, 109.1551
955.5124, 108.9605
955.9945, 108.9901
956.4766, 109.2020
956.9587, 109.6066
957.4409, 109.9879
957.9230, 109.9122
958.4051, 109.3975
958.8872, 109.6261
959.3693, 110.8824
959.8514, 111.6456
960.3336, 111.4914
960.8157, 110.9791
961.2978, 110.3949
961.7799, 109.8410
962.2620, 109.6403
962.7441, 110.0053
963.2263, 110.0659
963.7084, 109.5873
964.1905, 109.1214
964.6726, 108.6110
965.1547, 108.3374
965.6368, 108.7051
966.1190, 109.5554
966.6011, 110.1505
967.0832, 110.2975
967.5653, 110.3988
968.0474, 110.5576
968.5295, 110.6735
969.0117, 110.6093
969.4938, 110.5120
969.9759, 110.6089
970.4580, 110.8995
970.9401, 111.1478
971.4222, 111.2821
971.9044, 111.2958
972.3865, 111.0738
972.8686, 110.8158
973.3507, 110.7223
973.8328, 110.7774
974.3149, 110.9579
974.7971, 111.2297
975.2792, 111.3601
975.7613, 110.9355
976.2434, 110.5223
976.7255, 111.1630
977.2076, 112.2998
977.6898, 112.6074
978.1719, 112.1072
978.6540, 111.7990
979.1361, 112.1563
979.6182, 112.7534
980.1003, 113.1282
980.5825, 113.2936
981.0646, 113.2158
981.5467, 112.9306
982.0288, 112.7343
982.5109, 112.6860
982.9930, 112.6783
983.4752, 112.6628
983.9573, 112.5422
984.4394, 112.0085
984.9215, 111.0550
985.4036, 110.7919
985.8857, 111.2997
986.3679, 112.1311
986.8500, 113.3563
987.3321, 114.2619
987.8142, 114.1547
988.2963, 113.3892
988.7784, 113.1109
989.2606, 113.5429
989.7427, 113.6636
990.2248, 113.3274
990.7069, 112.9418
991.1890, 112.4354
991.6711, 112.1487
992.1533, 112.5215
992.6354, 113.4316
993.1175, 114.1506
993.5996, 114.6398
994.0817, 115.0069
994.5638, 115.1815
995.0460, 115.3234
995.5281, 115.6704
996.0102, 115.8926
996.4923, 115.3271
996.9744, 114.1634
997.4565, 113.8832
997.9387, 115.4553
998.4208, 116.7751
998.9029, 117.1060
999.3850, 117.2419
999.8671, 117.7574
1000.349, 118.3452
1000.831, 118.4763
1001.313, 118.1233
1001.796, 117.7542
1002.278, 117.3141
1002.760, 117.2810
1003.242, 118.3565
1003.724, 119.5729
1004.206, 120.0027
1004.688, 119.8723
1005.170, 119.7232
1005.653, 119.7121
1006.135, 119.8143
1006.617, 120.0870
1007.099, 120.3696
1007.581, 120.5636
1008.063, 120.6398
1008.545, 120.4843
1009.027, 120.1777
1009.509, 119.9310
1009.992, 119.8233
1010.474, 119.8292
1010.956, 119.9851
1011.438, 120.1778
1011.920, 120.2332
1012.402, 120.1927
1012.884, 120.1876
1013.366, 120.1970
1013.849, 120.0236
1014.331, 119.5853
1014.813, 119.1091
1015.295, 118.8812
1015.777, 118.7783
1016.259, 118.4603
1016.741, 117.9805
1017.223, 117.6302
1017.705, 117.4350
1018.188, 117.1222
1018.670, 116.5440
1019.152, 115.9278
1019.634, 115.6094
1020.116, 115.5185
1020.598, 115.3176
1021.080, 115.0089
1021.562, 114.6066
1022.044, 114.1051
1022.527, 113.6910
1023.009, 113.5131
1023.491, 113.2585
1023.973, 112.2763
1024.455, 110.6601
1024.937, 110.1541
1025.419, 110.9375
1025.901, 111.2741
1026.384, 110.7393
1026.866, 110.2516
1027.348, 110.4786
1027.830, 110.8830
1028.312, 110.3947
1028.794, 108.9539
1029.276, 108.0466
1029.758, 107.7756
1030.240, 107.6855
1030.723, 107.7482
1031.205, 107.8422
1031.687, 107.8896
1032.169, 107.9171
1032.651, 107.9935
1033.133, 108.1402
1033.615, 108.1479
1034.097, 107.9756
1034.579, 107.7398
1035.062, 107.3726
1035.544, 107.0742
1036.026, 106.9219
1036.508, 106.9662
1036.990, 107.4187
1037.472, 108.4739
1037.954, 108.8276
1038.436, 107.9511
1038.919, 107.2158
1039.401, 106.8915
1039.883, 106.7375
1040.365, 106.6177
1040.847, 106.5565
1041.329, 106.6485
1041.811, 106.9663
1042.293, 107.0574
1042.776, 106.9293
1043.258, 106.5544
1043.740, 105.4381
1044.222, 104.5621
1044.704, 104.8450
1045.186, 105.7233
1045.668, 106.0635
1046.150, 105.7094
1046.632, 105.4234
1047.115, 105.3892
1047.597, 105.2893
1048.079, 104.8408
1048.561, 104.5028
1049.043, 104.8568
1049.525, 105.4488
1050.007, 105.3391
1050.489, 104.3534
1050.971, 103.5394
1051.454, 103.1151
1051.936, 102.8692
1052.418, 102.6725
1052.900, 102.6980
1053.382, 103.4796
1053.864, 104.4145
1054.346, 104.2923
1054.828, 102.9161
1055.311, 101.7299
1055.793, 101.0359
1056.275, 100.6976
1056.757, 101.0077
1057.239, 101.3281
1057.721, 101.0837
1058.203, 100.5532
1058.685, 100.2847
1059.167, 100.3583
1059.650, 100.3796
1060.132, 100.2211
1060.614, 99.98756
1061.096, 99.61129
1061.578, 99.27850
1062.060, 99.23608
1062.542, 99.28521
1063.024, 99.03012
1063.506, 98.44074
1063.989, 97.99627
1064.471, 98.01436
1064.953, 98.00047
1065.435, 97.60205
1065.917, 97.24154
1066.399, 97.38631
1066.881, 97.71513
1067.363, 97.62801
1067.846, 97.10412
1068.328, 96.78609
1068.810, 97.04115
1069.292, 97.32047
1069.774, 97.52421
1070.256, 97.51384
1070.738, 97.02158
1071.220, 96.34373
1071.703, 95.91262
1072.185, 95.74782
1072.667, 95.52110
1073.149, 95.04115
1073.631, 94.64833
1074.113, 94.58953
1074.595, 94.58184
1075.077, 94.37135
1075.559, 94.11650
1076.042, 94.05551
1076.524, 94.17957
1077.006, 94.33977
1077.488, 94.60207
1077.970, 94.51962
1078.452, 93.55177
1078.934, 92.53306
1079.416, 91.83398
1079.898, 91.53743
1080.380, 91.87406
1080.863, 92.66309
1081.345, 93.35561
1081.827, 93.81712
1082.309, 93.99283
1082.791, 93.70814
1083.273, 93.30508
1083.755, 92.96436
1084.237, 92.63540
1084.720, 92.13567
1085.202, 91.61045
1085.684, 91.49500
1086.166, 91.94913
1086.648, 92.34010
1087.130, 92.48369
1087.612, 92.39304
1088.094, 91.89506
1088.577, 91.32158
1089.059, 90.90618
1089.541, 90.68506
1090.023, 90.74178
1090.505, 91.09427
1090.987, 91.29796
1091.469, 91.09569
1091.951, 90.83512
1092.433, 90.72676
1092.916, 90.55964
1093.398, 89.94249
1093.880, 89.25486
1094.362, 89.27500
1094.844, 90.03957
1095.326, 90.48505
1095.808, 90.08459
1096.290, 89.60092
1096.772, 89.14983
1097.255, 88.83629
1097.737, 88.78372
1098.219, 88.87026
1098.701, 88.90360
1099.183, 88.89681
1099.665, 89.08683
1100.147, 89.77473
1100.629, 90.14214
1101.112, 89.79875
1101.594, 89.29785
1102.076, 88.79667
1102.558, 88.36064
1103.040, 88.09869
1103.522, 87.95359
1104.004, 87.67049
1104.486, 87.06527
1104.969, 86.79160
1105.451, 87.30948
1105.933, 87.72880
1106.415, 87.71589
1106.897, 87.50808
1107.379, 87.16479
1107.861, 86.81178
1108.343, 86.78354
1108.825, 87.20791
1109.307, 87.35036
1109.790, 86.81873
1110.272, 86.46798
1110.754, 86.52457
1111.236, 86.75019
1111.718, 87.17548
1112.200, 87.59657
1112.682, 87.64003
1113.164, 87.28165
1113.647, 86.99397
1114.129, 86.70374
1114.611, 86.61462
1115.093, 86.96122
1115.575, 87.21028
1116.057, 87.09426
1116.539, 86.80691
1117.021, 86.54411
1117.504, 86.30667
1117.986, 86.10039
1118.468, 85.92163
1118.950, 85.77586
1119.432, 85.60011
1119.914, 85.60868
1120.396, 86.03750
1120.878, 86.38267
1121.360, 86.12264
1121.843, 85.51587
1122.325, 85.38892
1122.807, 85.92077
1123.289, 85.72530
1123.771, 84.38256
1124.253, 83.85767
1124.735, 84.89719
1125.217, 85.81955
1125.699, 85.53622
1126.182, 84.53568
1126.664, 83.56372
1127.146, 82.64538
1127.628, 82.32504
1128.110, 82.68700
1128.592, 82.85735
1129.074, 82.68017
1129.556, 82.69257
1130.039, 83.19140
1130.521, 83.62781
1131.003, 83.29217
1131.485, 82.51672
1131.967, 82.63142
1132.449, 83.55679
1132.931, 83.67250
1133.413, 82.92465
1133.896, 82.98249
1134.378, 84.35367
1134.860, 85.57983
1135.342, 85.51012
1135.824, 84.72562
1136.306, 84.21730
1136.788, 83.90372
1137.270, 83.41376
1137.752, 82.81386
1138.234, 82.51247
1138.717, 82.53167
1139.199, 82.40462
1139.681, 81.88967
1140.163, 81.43948
1140.645, 81.66714
1141.127, 82.19324
1141.609, 82.34190
1142.091, 82.23816
1142.574, 82.07493
1143.056, 81.92989
1143.538, 81.96471
1144.020, 82.21068
1144.502, 82.47942
1144.984, 82.64214
1145.466, 82.76425
1145.948, 83.00860
1146.431, 83.17612
1146.913, 82.87474
1147.395, 82.36788
1147.877, 82.15437
1148.359, 82.27254
1148.841, 82.45996
1149.323, 82.61842
1149.805, 82.75557
1150.287, 82.93599
1150.770, 83.02855
1151.252, 82.79001
1151.734, 82.53397
1152.216, 82.74812
1152.698, 83.18681
1153.180, 83.17814
1153.662, 82.58460
1154.144, 82.09585
1154.626, 81.85554
1155.109, 81.87939
1155.591, 82.33829
1156.073, 82.88042
1156.555, 83.61314
1157.037, 84.09095
1157.519, 83.48318
1158.001, 81.98528
1158.483, 81.17693
1158.966, 81.54325
1159.448, 81.86389
1159.930, 82.16234
1160.412, 82.26629
1160.894, 81.91328
1161.376, 81.60163
1161.858, 81.82234
1162.340, 82.27033
1162.822, 82.22572
1163.305, 81.60774
1163.787, 81.37181
1164.269, 81.60355
1164.751, 82.02608
1165.233, 82.77248
1165.715, 83.15018
1166.197, 82.67114
1166.679, 82.12641
1167.161, 82.54293
1167.644, 83.58128
1168.126, 83.78718
1168.608, 83.12971
1169.090, 82.56445
1169.572, 82.13237
1170.054, 81.80450
1170.536, 81.57314
1171.018, 81.49755
1171.500, 81.62221
1171.983, 81.90925
1172.465, 82.43640
1172.947, 83.02491
1173.429, 82.98020
1173.911, 82.46687
1174.393, 82.06105
1174.875, 81.84364
1175.357, 81.80145
1175.840, 81.90676
1176.322, 81.90023
1176.804, 81.49892
1177.286, 81.03749
1177.768, 80.87642
1178.250, 80.96117
1178.732, 81.48443
1179.214, 82.07454
1179.697, 81.82200
1180.179, 80.86152
1180.661, 80.38783
1181.143, 80.95000
1181.625, 81.57108
1182.107, 81.58216
1182.589, 81.54623
1183.071, 81.84391
1183.553, 82.25667
1184.036, 82.72219
1184.518, 83.07063
1185.000, 82.92136
1185.482, 82.26437
1185.964, 81.88239
1186.446, 82.21435
1186.928, 82.40763
1187.410, 82.17036
1187.892, 81.95647
1188.375, 81.95515
1188.857, 82.06727
1189.339, 82.28653
1189.821, 82.52108
1190.303, 82.48779
1190.785, 82.14287
1191.267, 81.76675
1191.749, 81.24693
1192.232, 81.02803
1192.714, 81.23045
1193.196, 81.62015
1193.678, 82.13824
1194.160, 82.62999
1194.642, 82.93334
1195.124, 83.01400
1195.606, 82.55735
1196.089, 81.60757
1196.571, 81.59236
1197.053, 82.51243
1197.535, 82.97674
1198.017, 82.65534
1198.499, 82.19130
1198.981, 81.97152
1199.463, 81.96774
1199.945, 82.21260
1200.427, 82.59321
1200.910, 82.95399
1201.392, 83.24657
1201.874, 83.36529
1202.356, 83.31735
1202.838, 83.10959
1203.320, 82.77798
1203.802, 82.50801
1204.284, 82.38436
1204.767, 82.42390
1205.249, 82.84284
1205.731, 83.21239
1206.213, 83.10128
1206.695, 82.78609
1207.177, 82.55400
1207.659, 82.43863
1208.141, 82.45890
1208.624, 82.63551
1209.106, 82.64429
1209.588, 82.14266
1210.070, 81.86446
1210.552, 82.20689
1211.034, 82.51437
1211.516, 82.36333
1211.998, 82.10631
1212.480, 82.14817
1212.963, 82.36590
1213.445, 82.23830
1213.927, 81.58225
1214.409, 81.58958
1214.891, 82.53877
1215.373, 82.99240
1215.855, 82.59113
1216.337, 82.09949
1216.819, 81.90567
1217.302, 81.91115
1217.784, 82.03914
1218.266, 82.20081
1218.748, 82.03048
1219.230, 81.63696
1219.712, 81.54478
1220.194, 81.76728
1220.676, 82.36948
1221.159, 83.23910
1221.641, 83.57224
1222.123, 82.91526
1222.605, 82.13748
1223.087, 82.20484
1223.569, 82.51991
1224.051, 82.23244
1224.533, 81.90182
1225.016, 82.66088
1225.498, 83.79819
1225.980, 83.59374
1226.462, 82.03931
1226.944, 80.98965
1227.426, 81.19033
1227.908, 81.64256
1228.390, 82.25914
1228.872, 82.72413
1229.354, 82.93382
1229.837, 82.91089
1230.319, 82.48161
1230.801, 81.93359
1231.283, 81.86732
1231.765, 82.25488
1232.247, 82.04395
1232.729, 80.74614
1233.211, 80.44856
1233.694, 81.58244
1234.176, 82.46117
1234.658, 82.51421
1235.140, 82.55293
1235.622, 83.24350
1236.104, 83.92477
1236.586, 83.24426
1237.068, 81.69556
1237.551, 81.43297
1238.033, 82.19039
1238.515, 83.00014
1238.997, 83.63696
1239.479, 83.54119
1239.961, 82.67519
1240.443, 81.97115
1240.925, 82.03637
1241.407, 82.36802
1241.890, 82.69344
1242.372, 82.83069
1242.854, 82.33145
1243.336, 81.75333
1243.818, 81.88360
1244.300, 82.45652
1244.782, 82.85236
1245.264, 82.95094
1245.746, 82.73992
1246.229, 81.84893
1246.711, 81.32938
1247.193, 81.72404
1247.675, 82.01403
1248.157, 81.57340
1248.639, 81.26732
1249.121, 81.83914
1249.603, 82.80869
1250.085, 83.33433
1250.568, 83.42815
1251.050, 83.28382
1251.532, 82.86760
1252.014, 82.54841
1252.496, 82.34879
1252.978, 82.46102
1253.460, 82.93964
1253.942, 83.19180
1254.425, 82.78958
1254.907, 82.17130
1255.389, 81.85713
1255.871, 81.81712
1256.353, 82.12841
1256.835, 82.60091
1257.317, 82.94983
1257.799, 83.11748
1258.281, 82.93518
1258.764, 82.48735
1259.246, 82.41393
1259.728, 83.15311
1260.210, 83.65290
1260.692, 83.17663
1261.174, 82.67300
1261.656, 82.47408
1262.138, 82.53870
1262.620, 83.02647
1263.103, 83.63506
1263.585, 83.91293
1264.067, 83.87756
1264.549, 83.62007
1265.031, 82.85099
1265.513, 82.96826
1265.995, 84.29949
1266.477, 85.01783
1266.960, 84.64785
1267.442, 84.06325
1267.924, 83.72781
1268.406, 83.62195
1268.888, 83.79234
1269.370, 84.03823
1269.852, 83.77175
1270.334, 83.26363
1270.817, 83.26327
1271.299, 83.60931
1271.781, 83.77065
1272.263, 83.69397
1272.745, 83.60972
1273.227, 83.60579
1273.709, 83.59520
1274.191, 83.42297
1274.673, 83.37520
1275.156, 83.65993
1275.638, 84.04284
1276.120, 84.52799
1276.602, 84.90139
1277.084, 84.92306
1277.566, 84.63258
1278.048, 84.10827
1278.530, 83.24715
1279.012, 83.17936
1279.495, 84.18650
1279.977, 84.97948
1280.459, 85.44807
1280.941, 85.56676
1281.423, 85.30801
1281.905, 84.79225
1282.387, 84.05558
1282.869, 83.43867
1283.352, 83.62006
1283.834, 84.29165
1284.316, 84.78817
1284.798, 85.11401
##END=



