##NAMES=Plattnerite
##RRUFFID=R080019
##IDEAL CHEMISTRY=Pb^4+^O_2_
##LOCALITY=Snake Pit, lower Mex-Tex mine, Hansonburg District, Socorro County, New Mexico, USA
##OWNER=RRUFF
##SOURCE=William W. Pinch
##DESCRIPTION=Black twinned crystals associated with red scrutinyite, R080018, on the surface of a quartz crystal
##STATUS=The identification of this mineral has been confirmed by single-crystal X-ray diffraction.
##URL=rruff.info/R080019
146.5207, 567.4298
147.0029, 567.1500
147.4850, 566.7900
147.9671, 566.3403
148.4492, 565.8348
148.9313, 565.3351
149.4134, 564.7969
149.8955, 564.2051
150.3777, 564.0645
150.8598, 565.1560
151.3419, 566.0632
151.8240, 566.3298
152.3061, 565.9669
152.7882, 565.2152
153.2704, 564.2602
153.7525, 562.9433
154.2346, 562.0045
154.7167, 561.6144
155.1988, 561.3737
155.6809, 561.0676
156.1631, 560.6552
156.6452, 560.2145
157.1273, 559.8408
157.6094, 559.4931
158.0915, 559.3492
158.5736, 559.9261
159.0558, 560.4587
159.5379, 560.0865
160.0200, 558.5413
160.5021, 556.4367
160.9842, 554.8316
161.4663, 553.7878
161.9485, 552.8974
162.4306, 552.0914
162.9127, 551.3789
163.3948, 550.7872
163.8769, 550.3650
164.3590, 550.0059
164.8412, 549.5647
165.3233, 549.0549
165.8054, 548.4388
166.2875, 547.7280
166.7696, 546.9094
167.2517, 545.8572
167.7339, 544.1848
168.2160, 542.5516
168.6981, 541.6968
169.1802, 541.7675
169.6623, 542.1006
170.1444, 542.0225
170.6266, 541.4610
171.1087, 540.9329
171.5908, 540.5299
172.0729, 540.2455
172.5550, 540.1660
173.0371, 540.3290
173.5193, 540.4967
174.0014, 540.2083
174.4835, 539.1259
174.9656, 538.3206
175.4477, 538.2375
175.9298, 538.3278
176.4120, 538.0776
176.8941, 537.2723
177.3762, 536.1415
177.8583, 535.3120
178.3404, 534.7974
178.8225, 534.6403
179.3047, 535.3075
179.7868, 536.1666
180.2689, 536.3929
180.7510, 535.5364
181.2331, 533.9262
181.7152, 533.0709
182.1974, 533.7617
182.6795, 534.2990
183.1616, 534.1750
183.6437, 533.7269
184.1258, 533.6347
184.6079, 534.3568
185.0900, 535.6779
185.5722, 536.1740
186.0543, 535.4643
186.5364, 534.5458
187.0185, 533.7327
187.5006, 533.0005
187.9827, 532.1802
188.4649, 531.0624
188.9470, 529.8325
189.4291, 529.2210
189.9112, 529.6829
190.3933, 530.3215
190.8754, 530.6790
191.3576, 530.7560
191.8397, 530.4934
192.3218, 529.5623
192.8039, 528.3412
193.2860, 527.6981
193.7681, 528.1860
194.2503, 528.8810
194.7324, 528.6811
195.2145, 527.4389
195.6966, 526.2936
196.1787, 526.2573
196.6608, 526.6109
197.1430, 526.4442
197.6251, 525.1703
198.1072, 523.5601
198.5893, 523.0294
199.0714, 524.0246
199.5535, 524.9382
200.0357, 525.1700
200.5178, 524.9280
200.9999, 524.4063
201.4820, 523.6649
201.9641, 522.7139
202.4462, 521.4882
202.9284, 519.4465
203.4105, 518.0818
203.8926, 518.1095
204.3747, 518.8498
204.8568, 519.5035
205.3389, 519.6525
205.8211, 519.3624
206.3032, 518.9014
206.7853, 517.9293
207.2674, 517.2145
207.7495, 517.0405
208.2316, 517.1760
208.7138, 517.3355
209.1959, 517.3675
209.6780, 517.2524
210.1601, 516.8362
210.6422, 515.8721
211.1243, 514.8452
211.6065, 513.6473
212.0886, 512.4576
212.5707, 511.5508
213.0528, 511.1086
213.5349, 511.0995
214.0170, 511.2664
214.4992, 512.1778
214.9813, 512.6425
215.4634, 512.1033
215.9455, 510.8690
216.4276, 509.5644
216.9097, 508.5670
217.3919, 507.8588
217.8740, 507.2961
218.3561, 506.9044
218.8382, 506.5938
219.3203, 506.4828
219.8024, 506.4557
220.2845, 506.1564
220.7667, 505.2885
221.2488, 503.9945
221.7309, 503.0981
222.2130, 502.8150
222.6951, 502.6682
223.1772, 502.5955
223.6594, 502.5255
224.1415, 502.0893
224.6236, 500.9097
225.1057, 499.2671
225.5878, 498.1310
226.0699, 497.7050
226.5521, 497.5300
227.0342, 497.4943
227.5163, 497.5539
227.9984, 497.2387
228.4805, 496.1278
228.9626, 494.5458
229.4448, 493.1375
229.9269, 491.8712
230.4090, 490.8976
230.8911, 490.4923
231.3732, 490.6608
231.8553, 490.7533
232.3375, 490.6984
232.8196, 490.2683
233.3017, 489.0712
233.7838, 486.8021
234.2659, 484.4018
234.7480, 482.9425
235.2302, 482.5229
235.7123, 482.1020
236.1944, 481.2812
236.6765, 480.3087
237.1586, 479.3964
237.6407, 478.5995
238.1229, 477.7894
238.6050, 476.7777
239.0871, 475.5216
239.5692, 474.3199
240.0513, 473.1750
240.5334, 472.1573
241.0156, 471.3461
241.4977, 470.7629
241.9798, 470.2949
242.4619, 469.7935
242.9440, 469.2230
243.4261, 468.7474
243.9083, 468.7836
244.3904, 468.6632
244.8725, 467.7938
245.3546, 466.1071
245.8367, 464.2206
246.3188, 463.0261
246.8010, 462.8017
247.2831, 462.4122
247.7652, 461.6909
248.2473, 460.8482
248.7294, 459.9671
249.2115, 459.0785
249.6937, 458.2204
250.1758, 457.4814
250.6579, 456.9837
251.1400, 456.2505
251.6221, 454.9144
252.1042, 453.6479
252.5864, 452.9552
253.0685, 452.8158
253.5506, 452.7765
254.0327, 452.2794
254.5148, 451.1783
254.9969, 450.0688
255.4790, 448.8679
255.9612, 447.7202
256.4433, 446.7120
256.9254, 445.8463
257.4075, 445.0576
257.8896, 444.2603
258.3718, 443.3830
258.8539, 442.8525
259.3360, 443.1066
259.8181, 443.2553
260.3002, 442.8210
260.7823, 441.8290
261.2645, 440.5778
261.7466, 439.3037
262.2287, 437.9623
262.7108, 436.9755
263.1929, 436.3573
263.6750, 435.9899
264.1572, 435.9722
264.6393, 436.1934
265.1214, 436.3603
265.6035, 436.2540
266.0856, 435.8706
266.5677, 435.2176
267.0499, 433.9751
267.5320, 432.8326
268.0141, 432.1651
268.4962, 431.8585
268.9783, 431.5186
269.4604, 430.8560
269.9426, 429.9117
270.4247, 429.2495
270.9068, 429.1019
271.3889, 428.9214
271.8710, 428.4069
272.3531, 427.6918
272.8352, 427.1677
273.3174, 427.1208
273.7995, 427.3743
274.2816, 427.0371
274.7637, 425.5046
275.2458, 424.2046
275.7279, 423.8169
276.2101, 423.9667
276.6922, 423.8208
277.1743, 422.9350
277.6564, 421.6431
278.1385, 420.9277
278.6206, 421.0716
279.1028, 421.1297
279.5849, 420.8348
280.0670, 420.2829
280.5491, 419.5984
281.0312, 418.7922
281.5133, 417.9694
281.9955, 417.3853
282.4776, 417.1445
282.9597, 416.7292
283.4418, 415.7661
283.9239, 414.6067
284.4060, 413.8881
284.8882, 413.8324
285.3703, 413.9331
285.8524, 413.3440
286.3345, 411.9688
286.8166, 411.0267
287.2987, 411.2436
287.7809, 411.8459
288.2630, 411.7305
288.7451, 410.6529
289.2272, 409.4092
289.7093, 408.9296
290.1914, 409.1604
290.6736, 409.1889
291.1557, 408.6553
291.6378, 407.9788
292.1199, 407.6185
292.6020, 407.6263
293.0841, 407.7723
293.5663, 407.9690
294.0484, 408.1673
294.5305, 408.1361
295.0126, 407.9859
295.4947, 407.5015
295.9768, 406.0616
296.4590, 403.7231
296.9411, 402.1137
297.4232, 402.6893
297.9053, 404.7033
298.3874, 405.6943
298.8695, 404.9807
299.3517, 403.9008
299.8338, 403.3659
300.3159, 403.3094
300.7980, 403.3134
301.2801, 403.2694
301.7622, 403.1006
302.2444, 402.6426
302.7265, 401.7089
303.2086, 400.9368
303.6907, 400.7222
304.1728, 400.9755
304.6549, 401.4817
305.1371, 402.4372
305.6192, 403.2256
306.1013, 402.7877
306.5834, 400.9919
307.0655, 399.3932
307.5476, 398.7833
308.0298, 398.8471
308.5119, 398.8888
308.9940, 398.7936
309.4761, 398.5801
309.9582, 398.1598
310.4403, 397.5669
310.9225, 397.1636
311.4046, 397.0299
311.8867, 397.1628
312.3688, 397.7863
312.8509, 399.0797
313.3330, 400.0049
313.8152, 399.2250
314.2973, 397.2612
314.7794, 395.8086
315.2615, 395.5786
315.7436, 395.7858
316.2257, 395.5436
316.7079, 394.8169
317.1900, 394.1628
317.6721, 393.8882
318.1542, 393.9584
318.6363, 394.2654
319.1184, 395.1374
319.6006, 395.8315
320.0827, 395.6479
320.5648, 394.6908
321.0469, 393.7147
321.5290, 392.9525
322.0111, 392.4330
322.4933, 392.1509
322.9754, 392.1331
323.4575, 392.2495
323.9396, 392.7465
324.4217, 393.3629
324.9038, 393.1665
325.3860, 391.6241
325.8681, 389.6902
326.3502, 388.6775
326.8323, 388.5424
327.3144, 388.5663
327.7965, 388.4771
328.2787, 388.3888
328.7608, 388.6191
329.2429, 389.3113
329.7250, 389.8447
330.2071, 389.3636
330.6892, 388.0698
331.1714, 387.1311
331.6535, 387.0467
332.1356, 387.2485
332.6177, 387.1596
333.0998, 386.7508
333.5819, 386.2567
334.0641, 385.8202
334.5462, 385.4244
335.0283, 384.9856
335.5104, 384.4092
335.9925, 383.8812
336.4746, 383.4997
336.9568, 383.2632
337.4389, 383.1867
337.9210, 383.3116
338.4031, 383.5694
338.8852, 383.8575
339.3673, 384.3748
339.8495, 384.4762
340.3316, 383.5968
340.8137, 382.1552
341.2958, 380.9116
341.7779, 380.0487
342.2600, 379.6017
342.7421, 379.8644
343.2242, 380.9706
343.7064, 381.5486
344.1885, 381.0998
344.6706, 380.1192
345.1527, 378.9635
345.6348, 377.6916
346.1169, 376.7542
346.5991, 376.7049
347.0812, 377.5947
347.5633, 377.9860
348.0454, 377.7055
348.5275, 377.0707
349.0096, 375.9869
349.4918, 374.6256
349.9739, 373.7644
350.4560, 374.0194
350.9381, 375.0791
351.4202, 375.3742
351.9023, 374.2198
352.3845, 373.2242
352.8666, 373.1057
353.3487, 373.4440
353.8308, 373.4207
354.3129, 372.6822
354.7950, 371.6456
355.2772, 371.1639
355.7593, 371.6701
356.2414, 371.7790
356.7235, 371.0857
357.2056, 370.0954
357.6877, 369.2381
358.1699, 368.6120
358.6520, 368.2073
359.1341, 368.0364
359.6162, 368.1575
360.0983, 368.2392
360.5804, 368.3405
361.0626, 368.3589
361.5447, 368.2455
362.0268, 368.0004
362.5089, 367.6279
362.9910, 367.1167
363.4731, 366.4852
363.9553, 365.9269
364.4374, 365.3488
364.9195, 364.9342
365.4016, 364.8941
365.8837, 364.9887
366.3658, 364.8059
366.8480, 364.1763
367.3301, 363.4203
367.8122, 363.2600
368.2943, 364.4244
368.7764, 365.0561
369.2585, 364.5649
369.7407, 363.9866
370.2228, 364.3180
370.7049, 365.5674
371.1870, 366.8053
371.6691, 366.9592
372.1512, 365.8217
372.6334, 364.8449
373.1155, 364.0349
373.5976, 363.3761
374.0797, 362.8330
374.5618, 362.4418
375.0439, 362.2951
375.5261, 362.4804
376.0082, 362.9217
376.4903, 363.2505
376.9724, 363.6092
377.4545, 363.6139
377.9366, 362.9309
378.4188, 362.0254
378.9009, 361.4015
379.3830, 361.2246
379.8651, 361.2198
380.3472, 360.9376
380.8293, 360.2727
381.3115, 359.6684
381.7936, 359.0422
382.2757, 358.5832
382.7578, 358.4556
383.2399, 358.6247
383.7220, 358.8875
384.2042, 359.1239
384.6863, 359.3266
385.1684, 359.3595
385.6505, 359.0995
386.1326, 358.8394
386.6147, 358.7213
387.0969, 358.6776
387.5790, 358.5956
388.0611, 358.4160
388.5432, 358.1903
389.0253, 357.9997
389.5074, 357.8369
389.9896, 357.7389
390.4717, 357.9388
390.9538, 358.0710
391.4359, 357.8047
391.9180, 357.0861
392.4001, 356.1568
392.8823, 354.9791
393.3644, 353.6656
393.8465, 352.9877
394.3286, 353.3696
394.8107, 353.9228
395.2928, 353.9497
395.7750, 353.5427
396.2571, 352.9831
396.7392, 352.2253
397.2213, 351.4460
397.7034, 350.8110
398.1855, 350.3093
398.6677, 350.2423
399.1498, 351.2040
399.6319, 352.5745
400.1140, 352.9116
400.5961, 351.6348
401.0782, 350.2254
401.5604, 349.5961
402.0425, 349.5172
402.5246, 349.2811
403.0067, 348.6252
403.4888, 347.8460
403.9709, 347.4244
404.4531, 347.3975
404.9352, 347.2881
405.4173, 347.0541
405.8994, 346.6727
406.3815, 345.8739
406.8636, 344.7287
407.3458, 344.0992
407.8279, 344.9257
408.3100, 347.0379
408.7921, 347.6210
409.2742, 345.6616
409.7563, 343.5221
410.2385, 341.8533
410.7206, 340.6324
411.2027, 339.8229
411.6848, 339.4175
412.1669, 339.2875
412.6490, 339.1865
413.1311, 339.2550
413.6133, 339.0889
414.0954, 338.4186
414.5775, 337.7193
415.0596, 337.4476
415.5417, 337.5654
416.0238, 337.5951
416.5060, 337.0447
416.9881, 335.8931
417.4702, 335.0771
417.9523, 334.9970
418.4344, 334.8250
418.9165, 334.2802
419.3987, 333.5498
419.8808, 332.9681
420.3629, 332.7004
420.8450, 332.4860
421.3271, 331.6398
421.8092, 329.6059
422.2914, 328.3735
422.7735, 328.8774
423.2556, 329.6443
423.7377, 329.8483
424.2198, 329.4084
424.7019, 328.6575
425.1841, 327.7210
425.6662, 326.6458
426.1483, 326.0146
426.6304, 326.1342
427.1125, 326.2082
427.5946, 325.8623
428.0768, 325.2497
428.5589, 324.5512
429.0410, 323.7462
429.5231, 323.0590
430.0052, 322.9179
430.4873, 323.3421
430.9695, 323.4952
431.4516, 322.9947
431.9337, 322.2425
432.4158, 321.7365
432.8979, 321.4802
433.3800, 321.1249
433.8622, 320.3178
434.3443, 319.3570
434.8264, 318.8356
435.3085, 318.8565
435.7906, 318.8939
436.2727, 318.3106
436.7549, 317.4115
437.2370, 317.5209
437.7191, 320.3556
438.2012, 322.4932
438.6833, 321.1778
439.1654, 317.7567
439.6476, 315.7067
440.1297, 316.4600
440.6118, 318.5194
441.0939, 319.3495
441.5760, 318.4605
442.0581, 317.6351
442.5403, 316.8572
443.0224, 316.2419
443.5045, 315.9031
443.9866, 315.8263
444.4687, 315.9615
444.9508, 316.3363
445.4330, 316.8831
445.9151, 316.8359
446.3972, 315.6403
446.8793, 314.5005
447.3614, 313.4025
447.8435, 312.5370
448.3257, 312.2388
448.8078, 312.5660
449.2899, 313.0520
449.7720, 312.9691
450.2541, 312.0990
450.7362, 311.4193
451.2184, 310.8334
451.7005, 310.5397
452.1826, 310.9054
452.6647, 311.6392
453.1468, 312.0474
453.6289, 311.6018
454.1111, 310.6871
454.5932, 310.4277
455.0753, 311.0919
455.5574, 311.5942
456.0395, 311.4217
456.5216, 311.0204
457.0038, 310.7108
457.4859, 310.5367
457.9680, 310.4079
458.4501, 310.1877
458.9322, 309.9442
459.4143, 310.0243
459.8965, 310.6211
460.3786, 311.1033
460.8607, 310.7090
461.3428, 309.7975
461.8249, 309.3185
462.3070, 309.8769
462.7892, 310.4906
463.2713, 310.2207
463.7534, 309.3285
464.2355, 308.8708
464.7176, 309.3432
465.1997, 310.1771
465.6819, 310.3587
466.1640, 309.7095
466.6461, 309.1466
467.1282, 308.7765
467.6103, 308.5252
468.0924, 308.2556
468.5746, 308.0149
469.0567, 308.0840
469.5388, 308.7268
470.0209, 309.8166
470.5030, 310.4898
470.9851, 310.3897
471.4673, 310.2887
471.9494, 310.1869
472.4315, 310.1680
472.9136, 310.3831
473.3957, 310.8347
473.8778, 311.2857
474.3600, 311.4225
474.8421, 311.1913
475.3242, 311.0381
475.8063, 310.8337
476.2884, 310.8635
476.7705, 311.4250
477.2527, 312.2386
477.7348, 312.8276
478.2169, 312.9473
478.6990, 312.8530
479.1811, 312.9329
479.6632, 313.1909
480.1454, 313.6043
480.6275, 314.3078
481.1096, 315.0371
481.5917, 315.6063
482.0738, 316.0116
482.5559, 316.2787
483.0380, 316.1539
483.5201, 316.0089
484.0023, 316.5760
484.4844, 317.9044
484.9665, 319.1652
485.4486, 319.8504
485.9307, 320.1757
486.4128, 320.7477
486.8950, 321.6709
487.3771, 322.5986
487.8592, 323.2437
488.3413, 323.8919
488.8234, 325.0901
489.3055, 326.9074
489.7877, 328.6552
490.2698, 329.6039
490.7519, 329.7010
491.2340, 330.0896
491.7161, 331.0251
492.1982, 331.9106
492.6804, 332.4762
493.1625, 332.9064
493.6446, 333.4911
494.1267, 334.3362
494.6088, 335.3033
495.0909, 336.1758
495.5731, 336.9514
496.0552, 337.6361
496.5373, 338.0880
497.0194, 338.5822
497.5015, 339.2918
497.9836, 340.1272
498.4658, 340.9020
498.9479, 341.5482
499.4300, 342.0194
499.9121, 342.1230
500.3942, 341.7625
500.8763, 341.6401
501.3585, 342.1357
501.8406, 342.7970
502.3227, 343.2106
502.8048, 343.3732
503.2869, 343.5043
503.7690, 343.7905
504.2512, 344.0739
504.7333, 344.0488
505.2154, 343.6989
505.6975, 343.3672
506.1796, 343.2135
506.6617, 343.2454
507.1439, 343.5232
507.6260, 344.3986
508.1081, 344.8421
508.5902, 344.3551
509.0723, 343.4099
509.5544, 342.4819
510.0366, 341.6784
510.5187, 340.9289
511.0008, 340.1554
511.4829, 339.3597
511.9650, 338.7648
512.4471, 338.7215
512.9293, 338.4657
513.4114, 337.6533
513.8935, 336.6473
514.3756, 335.9428
514.8577, 335.6536
515.3398, 335.3582
515.8220, 334.3846
516.3041, 332.6266
516.7862, 331.3751
517.2683, 330.9142
517.7504, 330.6364
518.2325, 330.3835
518.7147, 330.0834
519.1968, 329.6054
519.6789, 328.8657
520.1610, 328.0342
520.6431, 327.3803
521.1252, 326.8549
521.6074, 326.0040
522.0895, 324.5964
522.5716, 323.0939
523.0537, 321.9563
523.5358, 321.1494
524.0179, 320.5879
524.5001, 320.7166
524.9822, 320.6805
525.4643, 319.5874
525.9464, 317.7929
526.4285, 316.4272
526.9106, 316.0003
527.3928, 316.0465
527.8749, 315.6962
528.3570, 314.7095
528.8391, 313.8517
529.3212, 313.2162
529.8033, 312.6135
530.2855, 311.8789
530.7676, 311.0845
531.2497, 310.4874
531.7318, 310.2794
532.2139, 310.1887
532.6960, 309.4603
533.1782, 307.8866
533.6603, 306.2660
534.1424, 304.3940
534.6245, 302.7797
535.1066, 301.9909
535.5887, 301.8405
536.0709, 301.3993
536.5530, 299.8497
537.0351, 297.8116
537.5172, 296.4871
537.9993, 295.9157
538.4814, 295.3441
538.9636, 294.5074
539.4457, 293.4602
539.9278, 292.2509
540.4099, 290.8466
540.8920, 289.5179
541.3741, 288.4178
541.8563, 287.3697
542.3384, 286.1747
542.8205, 284.8413
543.3026, 283.5463
543.7847, 282.4277
544.2668, 281.3929
544.7490, 280.1281
545.2311, 278.3353
545.7132, 276.7187
546.1953, 275.4632
546.6774, 274.2543
547.1595, 272.8014
547.6417, 271.1430
548.1238, 269.5492
548.6059, 268.1796
549.0880, 267.0616
549.5701, 266.3613
550.0522, 266.3441
550.5344, 266.0675
551.0165, 265.1184
551.4986, 263.8714
551.9807, 262.3944
552.4628, 260.7377
552.9449, 259.5301
553.4271, 259.4959
553.9092, 260.0147
554.3913, 260.1342
554.8734, 259.8094
555.3555, 258.8190
555.8376, 256.7687
556.3198, 254.1939
556.8019, 252.5090
557.2840, 252.0198
557.7661, 251.5040
558.2482, 250.6199
558.7303, 249.6926
559.2125, 249.0479
559.6946, 248.6617
560.1767, 248.2427
560.6588, 247.5601
561.1409, 246.7255
561.6230, 246.2510
562.1052, 246.5568
562.5873, 246.4832
563.0694, 245.7184
563.5515, 244.7419
564.0336, 243.7966
564.5157, 242.9470
564.9979, 242.2566
565.4800, 241.7734
565.9621, 241.4762
566.4442, 241.3887
566.9263, 241.5677
567.4084, 241.5659
567.8906, 241.1617
568.3727, 240.5352
568.8548, 239.9135
569.3369, 239.2939
569.8190, 238.7246
570.3011, 238.1978
570.7833, 237.7515
571.2654, 237.5457
571.7475, 237.4998
572.2296, 237.1599
572.7117, 236.2072
573.1938, 235.0508
573.6760, 234.7112
574.1581, 236.0960
574.6402, 236.6171
575.1223, 235.6102
575.6044, 234.3994
576.0865, 233.6793
576.5687, 233.4200
577.0508, 233.3699
577.5329, 233.4256
578.0150, 233.4514
578.4971, 233.0460
578.9792, 232.0689
579.4614, 231.4820
579.9435, 231.7820
580.4256, 232.1701
580.9077, 232.1140
581.3898, 231.6590
581.8719, 230.9946
582.3541, 229.9180
582.8362, 228.9097
583.3183, 228.5778
583.8004, 228.7460
584.2825, 228.7482
584.7646, 228.3569
585.2468, 227.7903
585.7289, 227.3043
586.2110, 226.9062
586.6931, 226.5906
587.1752, 226.4135
587.6573, 226.2560
588.1394, 226.0848
588.6215, 225.8969
589.1036, 225.6614
589.5858, 225.3757
590.0679, 225.1396
590.5500, 225.1463
591.0321, 225.4386
591.5142, 225.5019
591.9963, 225.2364
592.4785, 224.8769
592.9606, 224.4227
593.4427, 223.9775
593.9248, 223.7437
594.4069, 223.8283
594.8890, 223.8174
595.3712, 223.1709
595.8533, 222.2367
596.3354, 221.9147
596.8175, 222.3452
597.2996, 222.8615
597.7817, 223.0401
598.2639, 222.8951
598.7460, 222.4761
599.2281, 221.4092
599.7102, 220.6177
600.1923, 220.4713
600.6744, 220.5030
601.1566, 220.2659
601.6387, 219.7639
602.1208, 219.3236
602.6029, 219.2227
603.0850, 219.3369
603.5671, 219.1514
604.0493, 218.5475
604.5314, 217.9595
605.0135, 217.4042
605.4956, 216.9568
605.9777, 216.6477
606.4598, 216.4893
606.9420, 216.5217
607.4241, 216.9504
607.9062, 217.4536
608.3883, 217.6336
608.8704, 217.5302
609.3525, 217.4061
609.8347, 217.4022
610.3168, 217.2224
610.7989, 216.3510
611.2810, 214.5187
611.7631, 213.3791
612.2452, 213.3745
612.7274, 213.5518
613.2095, 213.5598
613.6916, 213.4715
614.1737, 213.4831
614.6558, 213.6466
615.1379, 213.7529
615.6201, 213.5145
616.1022, 212.9250
616.5843, 212.2496
617.0664, 211.3307
617.5485, 210.6194
618.0306, 210.5068
618.5128, 210.6376
618.9949, 210.5244
619.4770, 210.0251
619.9591, 209.7104
620.4412, 210.1678
620.9233, 210.8922
621.4055, 211.1037
621.8876, 210.7578
622.3697, 210.1767
622.8518, 209.4987
623.3339, 208.8183
623.8160, 208.4180
624.2982, 208.4785
624.7803, 208.5413
625.2624, 208.7983
625.7445, 208.8863
626.2266, 208.3784
626.7087, 207.5287
627.1909, 206.9924
627.6730, 207.1579
628.1551, 207.5892
628.6372, 207.4582
629.1193, 206.7405
629.6014, 206.3727
630.0836, 206.7001
630.5657, 207.0519
631.0478, 206.7434
631.5299, 206.0480
632.0120, 205.6665
632.4941, 205.9988
632.9763, 206.2254
633.4584, 205.7687
633.9405, 205.0197
634.4226, 204.6292
634.9047, 204.6680
635.3868, 204.6119
635.8690, 203.9445
636.3511, 202.8360
636.8332, 202.5188
637.3153, 203.7290
637.7974, 204.5167
638.2795, 204.5090
638.7617, 204.1624
639.2438, 203.6368
639.7259, 203.0420
640.2080, 202.6378
640.6901, 202.6537
641.1722, 202.8455
641.6544, 202.8788
642.1365, 202.7561
642.6186, 202.4600
643.1007, 201.9301
643.5828, 201.3831
644.0649, 201.0498
644.5471, 200.9449
645.0292, 200.8980
645.5113, 201.0211
645.9934, 201.0720
646.4755, 200.9406
646.9576, 200.6988
647.4398, 200.4741
647.9219, 200.2717
648.4040, 199.9324
648.8861, 199.2416
649.3682, 198.2905
649.8503, 197.6725
650.3325, 197.4749
650.8146, 197.3905
651.2967, 197.5660
651.7788, 197.6305
652.2609, 197.1503
652.7430, 196.1551
653.2252, 195.2690
653.7073, 194.7662
654.1894, 194.4359
654.6715, 194.1716
655.1536, 193.9234
655.6357, 193.5386
656.1179, 192.9626
656.6000, 192.3335
657.0821, 191.8370
657.5642, 191.4929
658.0463, 191.0581
658.5284, 190.4672
659.0106, 189.8575
659.4927, 189.3021
659.9748, 188.7136
660.4569, 187.8908
660.9390, 186.8561
661.4211, 186.0319
661.9033, 185.9002
662.3854, 186.1615
662.8675, 186.2183
663.3496, 186.0679
663.8317, 185.6488
664.3138, 184.8385
664.7960, 183.9336
665.2781, 183.3297
665.7602, 183.0538
666.2423, 183.0135
666.7244, 183.6065
667.2065, 184.0009
667.6887, 183.7276
668.1708, 183.0594
668.6529, 182.3925
669.1350, 181.8464
669.6171, 181.2986
670.0992, 180.5418
670.5814, 179.6356
671.0635, 179.2183
671.5456, 179.5161
672.0277, 179.5542
672.5098, 178.7291
672.9919, 177.6465
673.4741, 177.0979
673.9562, 177.1096
674.4383, 177.0003
674.9204, 176.3667
675.4025, 175.7294
675.8846, 175.6357
676.3668, 175.8346
676.8489, 175.6820
677.3310, 174.9718
677.8131, 174.1204
678.2952, 173.6572
678.7773, 173.5959
679.2595, 173.5406
679.7416, 173.4510
680.2237, 173.4363
680.7058, 173.7402
681.1879, 173.9894
681.6700, 173.7100
682.1522, 172.9072
682.6343, 172.2550
683.1164, 172.3576
683.5985, 172.6371
684.0806, 172.3579
684.5627, 171.6195
685.0449, 170.8192
685.5270, 170.0686
686.0091, 169.5418
686.4912, 169.5310
686.9733, 170.1141
687.4554, 170.3081
687.9376, 169.8651
688.4197, 169.3273
688.9018, 168.6318
689.3839, 167.9908
689.8660, 167.6460
690.3481, 167.5953
690.8303, 167.5984
691.3124, 167.5590
691.7945, 167.4226
692.2766, 166.9613
692.7587, 166.2279
693.2408, 165.8281
693.7230, 166.0164
694.2051, 166.3903
694.6872, 166.5019
695.1693, 166.3374
695.6514, 166.1777
696.1335, 166.1765
696.6157, 165.9870
697.0978, 165.3018
697.5799, 164.5265
698.0620, 164.0656
698.5441, 163.9561
699.0262, 163.9908
699.5084, 164.0607
699.9905, 164.1218
700.4726, 164.0430
700.9547, 163.8198
701.4368, 163.6739
701.9189, 163.6877
702.4011, 163.7334
702.8832, 163.7204
703.3653, 163.6384
703.8474, 163.4345
704.3295, 162.9408
704.8116, 162.5394
705.2938, 162.4468
705.7759, 162.4286
706.2580, 162.2429
706.7401, 161.8839
707.2222, 161.4777
707.7043, 161.0902
708.1865, 160.7569
708.6686, 160.5238
709.1507, 160.3802
709.6328, 160.5504
710.1149, 161.3338
710.5970, 161.9547
711.0792, 161.6347
711.5613, 160.6904
712.0434, 160.0681
712.5255, 159.9869
713.0076, 159.9478
713.4897, 159.8665
713.9719, 159.6999
714.4540, 159.3035
714.9361, 158.7708
715.4182, 158.4162
715.9003, 158.4260
716.3824, 158.6174
716.8646, 158.5958
717.3467, 158.3172
717.8288, 158.3676
718.3109, 159.0678
718.7930, 159.5726
719.2751, 159.1470
719.7573, 158.3091
720.2394, 157.9590
720.7215, 158.3133
721.2036, 158.5260
721.6857, 157.9877
722.1678, 157.4551
722.6500, 157.8053
723.1321, 158.7157
723.6142, 159.2414
724.0963, 158.9881
724.5784, 158.3680
725.0605, 157.9556
725.5427, 157.7590
726.0248, 157.4041
726.5069, 156.7487
726.9890, 156.2503
727.4711, 156.0686
727.9532, 156.1586
728.4354, 156.6463
728.9175, 157.5523
729.3995, 157.9585
729.8817, 157.0250
730.3638, 156.0586
730.8459, 156.2194
731.3280, 156.9322
731.8101, 156.9970
732.2922, 156.1496
732.7744, 155.1654
733.2565, 154.8157
733.7386, 155.0065
734.2207, 155.1970
734.7028, 155.4611
735.1849, 155.4657
735.6671, 154.8688
736.1492, 154.2641
736.6313, 154.2842
737.1134, 154.7675
737.5955, 154.9918
738.0776, 154.6400
738.5598, 154.2191
739.0419, 153.9730
739.5240, 153.7983
740.0061, 153.5177
740.4882, 153.1549
740.9703, 152.9342
741.4525, 153.0224
741.9346, 153.2771
742.4167, 153.3674
742.8988, 153.2819
743.3809, 153.0986
743.8630, 152.7825
744.3452, 152.4357
744.8273, 152.0080
745.3094, 151.6241
745.7915, 151.5516
746.2736, 151.9035
746.7557, 152.2655
747.2379, 152.6717
747.7200, 152.8958
748.2021, 152.6867
748.6842, 152.1447
749.1663, 151.4265
749.6484, 150.6165
750.1306, 149.9926
750.6127, 150.0769
751.0948, 150.7927
751.5769, 150.9698
752.0590, 150.4664
752.5411, 149.9235
753.0233, 149.5404
753.5054, 149.2700
753.9875, 149.0368
754.4696, 148.8380
754.9517, 148.7805
755.4338, 149.1493
755.9160, 149.3507
756.3981, 148.9264
756.8802, 148.2943
757.3623, 147.9820
757.8444, 148.0490
758.3265, 148.2163
758.8087, 148.2896
759.2908, 148.3023
759.7729, 148.3998
760.2550, 148.5824
760.7371, 148.3965
761.2192, 147.6365
761.7014, 146.8461
762.1835, 146.4349
762.6656, 146.3385
763.1477, 146.2763
763.6298, 146.3086
764.1119, 146.2653
764.5941, 146.0247
765.0762, 145.7969
765.5583, 145.7476
766.0404, 145.8132
766.5225, 145.8661
767.0046, 145.8585
767.4868, 145.7715
767.9689, 145.5429
768.4510, 145.2239
768.9331, 144.9655
769.4152, 144.7744
769.8973, 144.6400
770.3795, 144.5910
770.8616, 144.4962
771.3437, 144.1008
771.8258, 143.3023
772.3079, 142.9756
772.7900, 143.5038
773.2722, 143.9944
773.7543, 144.3241
774.2364, 144.4908
774.7185, 144.4510
775.2006, 144.2395
775.6827, 143.9951
776.1649, 143.7445
776.6470, 143.5577
777.1291, 143.5741
777.6112, 143.7086
778.0933, 143.7945
778.5754, 143.7898
779.0576, 143.4917
779.5397, 142.6926
780.0218, 141.6345
780.5039, 141.0854
780.9860, 141.2743
781.4681, 141.3559
781.9503, 141.1289
782.4324, 141.0066
782.9145, 141.2857
783.3966, 141.7132
783.8787, 141.9351
784.3608, 141.8860
784.8430, 141.7277
785.3251, 141.4415
785.8072, 141.1581
786.2893, 140.9837
786.7714, 140.9110
787.2535, 140.9385
787.7357, 141.0540
788.2178, 141.1559
788.6999, 141.1353
789.1820, 141.0141
789.6641, 140.9236
790.1462, 140.8872
790.6284, 140.7574
791.1105, 140.4090
791.5926, 140.0953
792.0747, 140.1373
792.5568, 140.4101
793.0389, 140.3954
793.5211, 139.7276
794.0032, 139.3328
794.4853, 139.8400
794.9674, 140.3662
795.4495, 140.0440
795.9316, 139.1760
796.4138, 138.5872
796.8959, 138.6198
797.3780, 138.9004
797.8601, 139.0801
798.3422, 139.1558
798.8243, 139.1108
799.3065, 138.9441
799.7886, 138.6621
800.2707, 138.2190
800.7528, 137.8165
801.2349, 137.7608
801.7170, 138.0910
802.1992, 138.1263
802.6813, 137.5516
803.1634, 137.0910
803.6455, 136.7757
804.1276, 136.6566
804.6097, 136.9318
805.0919, 137.4458
805.5740, 137.6930
806.0561, 137.3965
806.5382, 136.9867
807.0203, 136.7761
807.5024, 136.6943
807.9846, 136.6861
808.4667, 136.7085
808.9488, 136.5989
809.4309, 136.2675
809.9130, 135.8477
810.3951, 135.5453
810.8773, 135.3591
811.3594, 135.3152
811.8415, 135.4548
812.3236, 135.6441
812.8057, 135.9415
813.2878, 136.1720
813.7700, 136.0814
814.2521, 135.6901
814.7342, 135.3886
815.2163, 135.3016
815.6984, 135.2233
816.1805, 135.0947
816.6627, 134.9247
817.1448, 134.6173
817.6269, 134.2703
818.1090, 134.2324
818.5911, 134.7446
819.0732, 135.3548
819.5554, 135.4499
820.0375, 135.1250
820.5196, 134.6940
821.0017, 134.1843
821.4838, 133.7269
821.9659, 133.3634
822.4481, 133.1635
822.9302, 133.2775
823.4123, 133.7797
823.8944, 134.0885
824.3765, 134.1800
824.8586, 134.0990
825.3408, 133.6502
825.8229, 133.1983
826.3050, 133.1875
826.7871, 133.4975
827.2692, 133.4450
827.7513, 132.4522
828.2335, 131.5954
828.7156, 131.6563
829.1977, 132.1692
829.6798, 132.6418
830.1619, 132.9716
830.6440, 133.0977
831.1262, 132.9863
831.6083, 132.7395
832.0904, 132.4368
832.5725, 132.0998
833.0546, 132.0686
833.5367, 132.4027
834.0189, 132.7316
834.5010, 133.0081
834.9831, 133.0470
835.4652, 132.4928
835.9473, 131.3131
836.4294, 130.6514
836.9116, 130.8838
837.3937, 131.0711
837.8758, 131.1721
838.3579, 131.0836
838.8400, 130.4953
839.3221, 129.6765
839.8043, 129.3542
840.2864, 129.8931
840.7685, 130.4643
841.2506, 130.4073
841.7327, 130.0121
842.2148, 129.5853
842.6970, 129.2015
843.1791, 129.0295
843.6612, 129.1269
844.1433, 129.3443
844.6254, 129.5496
845.1075, 129.7106
845.5897, 129.4968
846.0718, 128.7712
846.5539, 128.3544
847.0360, 128.5762
847.5181, 128.8894
848.0002, 128.8009
848.4824, 128.4223
848.9645, 128.2818
849.4466, 128.5612
849.9287, 128.7322
850.4108, 128.7245
850.8929, 128.6091
851.3751, 128.3527
851.8572, 128.0457
852.3393, 127.8476
852.8214, 127.7860
853.3035, 127.6642
853.7856, 127.2545
854.2678, 126.7787
854.7499, 126.5003
855.2320, 126.3884
855.7141, 126.3748
856.1962, 126.4384
856.6783, 126.5565
857.1605, 126.7178
857.6426, 126.9026
858.1247, 127.1123
858.6068, 127.3906
859.0889, 127.2898
859.5710, 126.6146
860.0532, 125.9822
860.5353, 125.7273
861.0174, 125.6730
861.4995, 125.4715
861.9816, 125.0497
862.4637, 125.0138
862.9459, 125.9777
863.4280, 126.5886
863.9101, 126.2335
864.3922, 125.4827
864.8743, 124.7546
865.3564, 124.1376
865.8386, 123.6504
866.3207, 123.2814
866.8028, 123.1028
867.2849, 123.3022
867.7670, 123.6622
868.2491, 123.8920
868.7313, 123.9574
869.2134, 123.8000
869.6955, 123.4021
870.1776, 123.0573
870.6597, 123.1757
871.1418, 123.6731
871.6239, 123.9806
872.1060, 124.0986
872.5881, 123.9929
873.0703, 123.5725
873.5524, 123.1226
874.0345, 122.8853
874.5166, 122.8139
874.9987, 122.7092
875.4808, 122.5968
875.9630, 122.4032
876.4451, 121.9507
876.9272, 121.6154
877.4093, 121.7164
877.8914, 121.9540
878.3735, 121.8425
878.8557, 121.3461
879.3378, 121.0785
879.8199, 121.5445
880.3020, 122.1284
880.7841, 122.4767
881.2662, 122.5688
881.7484, 122.2605
882.2305, 121.6414
882.7126, 121.0959
883.1947, 120.8517
883.6768, 120.7338
884.1589, 120.4557
884.6411, 120.0606
885.1232, 119.8087
885.6053, 119.7144
886.0874, 119.6402
886.5695, 119.5447
887.0516, 119.4027
887.5338, 119.1424
888.0159, 118.7875
888.4980, 118.7898
888.9801, 119.5093
889.4622, 119.8620
889.9443, 119.4945
890.4265, 118.9735
890.9086, 118.4941
891.3907, 118.1093
891.8728, 117.9269
892.3549, 117.9875
892.8370, 118.0924
893.3192, 118.2168
893.8013, 118.3373
894.2834, 118.4850
894.7655, 118.5938
895.2476, 118.5648
895.7297, 118.4030
896.2119, 118.2198
896.6940, 118.1040
897.1761, 117.9281
897.6582, 117.4362
898.1403, 116.8055
898.6224, 116.4535
899.1046, 116.3808
899.5867, 116.3302
900.0688, 116.1868
900.5509, 116.0959
901.0330, 116.3010
901.5151, 116.7416
901.9973, 116.8466
902.4794, 116.5552
902.9615, 116.3114
903.4436, 116.2684
903.9257, 116.1535
904.4078, 115.7074
904.8900, 115.0452
905.3721, 114.5337
905.8542, 114.1151
906.3363, 113.9921
906.8184, 114.4777
907.3005, 114.8701
907.7827, 114.8946
908.2648, 114.7207
908.7469, 114.4855
909.2290, 114.2238
909.7111, 114.0418
910.1932, 114.0070
910.6754, 114.0124
911.1575, 113.9911
911.6396, 113.9885
912.1217, 114.0849
912.6038, 114.2392
913.0859, 114.3849
913.5681, 114.4897
914.0502, 114.3993
914.5323, 113.7330
915.0144, 112.8793
915.4965, 112.6586
915.9786, 112.9523
916.4608, 113.3056
916.9429, 113.6001
917.4250, 113.7098
917.9071, 113.5240
918.3892, 113.1398
918.8713, 112.7321
919.3535, 112.2741
919.8356, 112.1790
920.3177, 112.6087
920.7998, 112.8689
921.2819, 112.5891
921.7640, 112.1709
922.2462, 112.1214
922.7283, 112.4310
923.2104, 112.5596
923.6925, 112.4666
924.1746, 112.2465
924.6567, 111.7057
925.1389, 111.2448
925.6210, 111.1191
926.1031, 111.2056
926.5852, 111.3359
927.0673, 111.4986
927.5494, 111.4956
928.0316, 111.1787
928.5137, 110.7639
928.9958, 110.1901
929.4779, 109.7118
929.9600, 109.7918
930.4421, 110.2851
930.9243, 110.4994
931.4064, 110.0489
931.8885, 109.5751
932.3706, 109.8710
932.8527, 110.5087
933.3348, 110.7490
933.8170, 110.6393
934.2991, 110.4705
934.7812, 110.3360
935.2633, 110.2376
935.7454, 110.2003
936.2275, 110.1480
936.7097, 109.7573
937.1918, 109.0442
937.6739, 108.8860
938.1560, 109.4611
938.6381, 109.9039
939.1202, 109.7721
939.6024, 109.3662
940.0845, 109.1239
940.5666, 109.0498
941.0487, 108.9052
941.5308, 108.6308
942.0129, 108.4044
942.4951, 108.1219
942.9772, 108.0532
943.4593, 108.6592
943.9414, 109.5312
944.4235, 109.7947
944.9056, 109.2745
945.3878, 108.7373
945.8699, 108.2113
946.3520, 107.7627
946.8341, 107.3028
947.3162, 107.0180
947.7983, 107.2251
948.2805, 107.7853
948.7626, 108.1654
949.2447, 108.1688
949.7268, 108.0284
950.2089, 107.8529
950.6910, 107.6215
951.1732, 107.1756
951.6553, 106.7064
952.1374, 106.6484
952.6195, 107.0364
953.1016, 107.4243
953.5837, 107.5337
954.0659, 107.4123
954.5480, 106.9896
955.0301, 106.4240
955.5122, 106.0629
955.9943, 105.9508
956.4764, 106.1934
956.9586, 106.8317
957.4407, 107.3812
957.9228, 107.2023
958.4049, 106.5004
958.8870, 106.1716
959.3691, 106.2246
959.8513, 106.1546
960.3334, 105.8598
960.8155, 105.5549
961.2976, 105.3451
961.7797, 105.2538
962.2618, 105.3555
962.7440, 105.6881
963.2261, 105.8067
963.7082, 105.5869
964.1903, 105.4563
964.6724, 105.6531
965.1545, 105.7718
965.6367, 105.3333
966.1188, 104.5861
966.6009, 104.4167
967.0830, 105.2146
967.5651, 105.5280
968.0472, 104.8435
968.5294, 104.2485
969.0115, 104.1927
969.4936, 104.3216
969.9757, 104.2715
970.4578, 104.0797
970.9399, 104.0326
971.4221, 104.3173
971.9042, 104.4747
972.3863, 104.1544
972.8684, 103.8296
973.3505, 103.8898
973.8326, 104.1435
974.3148, 104.2463
974.7969, 104.1745
975.2790, 104.2356
975.7611, 104.7520
976.2432, 105.1462
976.7253, 104.7844
977.2075, 104.0908
977.6896, 103.5484
978.1717, 103.2016
978.6538, 103.0421
979.1359, 103.0501
979.6180, 103.1101
980.1002, 103.1210
980.5823, 103.1235
981.0644, 103.1538
981.5465, 103.2390
982.0286, 103.5984
982.5107, 104.1715
982.9929, 104.3165
983.4750, 103.7294
983.9571, 102.9512
984.4392, 102.6553
984.9213, 102.7612
985.4034, 103.0117
985.8856, 103.4045
986.3677, 103.3596
986.8498, 102.7308
987.3319, 102.0879
987.8140, 101.7485
988.2961, 101.6755
988.7783, 101.8519
989.2604, 102.2912
989.7425, 102.5150
990.2246, 102.4140
990.7067, 102.5124
991.1888, 103.0465
991.6710, 103.5484
992.1531, 103.7505
992.6352, 103.6326
993.1173, 103.0698
993.5994, 101.8303
994.0815, 101.0981
994.5637, 101.2097
995.0458, 101.3183
995.5279, 101.0188
996.0100, 100.8449
996.4921, 101.4990
996.9742, 102.5687
997.4564, 102.8068
997.9385, 101.7633
998.4206, 101.0280
998.9027, 101.0458
999.3848, 101.0722
999.8669, 100.7337
1000.349, 100.3499
1000.831, 100.2935
1001.313, 100.4807
1001.795, 100.5157
1002.278, 100.2207
1002.760, 100.0291
1003.242, 100.2365
1003.724, 100.4444
1004.206, 100.3467
1004.688, 100.1304
1005.170, 100.0486
1005.652, 100.1075
1006.134, 100.1582
1006.617, 100.1450
1007.099, 100.0917
1007.581, 100.0478
1008.063, 99.94170
1008.545, 99.61470
1009.027, 99.21021
1009.509, 98.96046
1009.991, 98.91456
1010.474, 99.03022
1010.956, 99.31740
1011.438, 99.64149
1011.920, 99.92720
1012.402, 100.1207
1012.884, 100.0787
1013.366, 99.87776
1013.848, 99.72914
1014.330, 99.68493
1014.813, 99.66589
1015.295, 99.61179
1015.777, 99.55507
1016.259, 99.54321
1016.741, 99.56828
1017.223, 99.70397
1017.705, 99.87853
1018.187, 99.63709
1018.669, 98.87490
1019.152, 98.22773
1019.634, 98.27219
1020.116, 98.73767
1020.598, 99.13364
1021.080, 99.42895
1021.562, 99.37829
1022.044, 98.98348
1022.526, 98.59546
1023.008, 98.33747
1023.491, 98.16945
1023.973, 98.04587
1024.455, 97.99869
1024.937, 98.22151
1025.419, 98.71864
1025.901, 98.77132
1026.383, 98.28104
1026.865, 97.91067
1027.348, 97.94299
1027.830, 98.03979
1028.312, 97.81332
1028.794, 97.38062
1029.276, 97.29060
1029.758, 97.60389
1030.240, 97.89545
1030.722, 98.15909
1031.204, 98.33549
1031.687, 98.41714
1032.169, 98.35782
1032.651, 98.06123
1033.133, 97.59200
1033.615, 97.32304
1034.097, 97.28555
1034.579, 97.37193
1035.061, 97.65640
1035.544, 97.89442
1036.026, 97.99947
1036.508, 98.01569
1036.990, 98.04494
1037.472, 98.03947
1037.954, 97.60880
1038.436, 96.19508
1038.918, 95.57213
1039.401, 96.22921
1039.883, 96.97720
1040.365, 97.52457
1040.847, 97.83389
1041.329, 97.80624
1041.811, 97.48085
1042.293, 97.14565
1042.775, 96.81552
1043.257, 96.45196
1043.740, 95.78737
1044.222, 95.42042
1044.704, 95.82217
1045.186, 96.40716
1045.668, 96.58621
1046.150, 96.42216
1046.632, 96.31837
1047.114, 96.28094
1047.596, 96.33456
1048.079, 96.65374
1048.561, 96.85197
1049.043, 96.68581
1049.525, 96.40552
1050.007, 96.23396
1050.489, 96.17036
1050.971, 96.16113
1051.453, 96.20939
1051.936, 96.28805
1052.418, 96.60869
1052.900, 96.69472
1053.382, 96.01431
1053.864, 95.26432
1054.346, 95.16306
1054.828, 95.60507
1055.310, 96.10627
1055.792, 96.70486
1056.275, 96.95499
1056.757, 96.32801
1057.239, 95.84457
1057.721, 96.15633
1058.203, 96.66793
1058.685, 96.83810
1059.167, 96.68472
1059.649, 96.40906
1060.131, 96.03457
1060.614, 95.62559
1061.096, 94.92497
1061.578, 94.53574
1062.060, 95.10659
1062.542, 95.81727
1063.024, 95.85985
1063.506, 95.38401
1063.988, 94.92214
1064.471, 94.58979
1064.953, 94.31578
1065.435, 94.02403
1065.917, 93.84980
1066.399, 93.88074
1066.881, 94.04304
1067.363, 94.39968
1067.845, 94.79493
1068.328, 94.88680
1068.810, 94.59011
1069.292, 94.30644
1069.774, 94.22036
1070.256, 94.15083
1070.738, 93.88223
1071.220, 93.70364
1071.702, 94.03598
1072.184, 94.59412
1072.667, 94.74878
1073.149, 94.39463
1073.631, 94.14622
1074.113, 94.46330
1074.595, 94.68108
1075.077, 94.34229
1075.559, 93.90281
1076.041, 93.73303
1076.523, 93.74229
1077.006, 93.72868
1077.488, 93.66483
1077.970, 93.67442
1078.452, 93.95435
1078.934, 94.06677
1079.416, 93.60402
1079.898, 93.09155
1080.380, 92.96575
1080.863, 93.04480
1081.345, 93.00559
1081.827, 92.84304
1082.309, 92.84068
1082.791, 93.21952
1083.273, 93.47576
1083.755, 93.20586
1084.237, 92.91331
1084.719, 92.99201
1085.202, 93.22883
1085.684, 93.36769
1086.166, 93.38172
1086.648, 93.33443
1087.130, 93.25199
1087.612, 93.08106
1088.094, 92.66678
1088.576, 92.30920
1089.058, 92.21534
1089.541, 92.25769
1090.023, 92.34287
1090.505, 92.43070
1090.987, 92.45855
1091.469, 92.40405
1091.951, 92.35497
1092.433, 92.48528
1092.915, 92.45658
1093.397, 91.83363
1093.880, 91.21524
1094.362, 91.31585
1094.844, 91.78419
1095.326, 91.75086
1095.808, 91.05202
1096.290, 90.57023
1096.772, 90.80299
1097.254, 91.03072
1097.737, 90.97936
1098.219, 90.82316
1098.701, 90.61449
1099.183, 90.42857
1099.665, 90.34641
1100.147, 90.38168
1100.629, 90.55394
1101.111, 91.11314
1101.594, 91.40031
1102.076, 91.02574
1102.558, 90.56224
1103.040, 90.24726
1103.522, 90.08171
1104.004, 90.15997
1104.486, 90.39024
1104.968, 90.32879
1105.450, 89.69267
1105.932, 89.28488
1106.415, 89.51599
1106.897, 89.68919
1107.379, 89.40150
1107.861, 89.04005
1108.343, 89.02491
1108.825, 89.21807
1109.307, 89.16073
1109.789, 88.71691
1110.272, 88.44320
1110.754, 88.53007
1111.236, 88.61695
1111.718, 88.65592
1112.200, 88.62840
1112.682, 88.40229
1113.164, 88.15262
1113.646, 88.26204
1114.129, 88.78616
1114.611, 89.03010
1115.093, 88.79916
1115.575, 88.55297
1116.057, 88.32952
1116.539, 88.09495
1117.021, 87.77351
1117.503, 87.47982
1117.985, 87.36695
1118.468, 87.41492
1118.950, 87.45284
1119.432, 87.50126
1119.914, 87.49109
1120.396, 87.37486
1120.878, 87.28676
1121.360, 87.28722
1121.842, 87.30642
1122.324, 87.29525
1122.807, 87.24995
1123.289, 87.14761
1123.771, 86.96249
1124.253, 86.86305
1124.735, 86.84798
1125.217, 86.95210
1125.699, 87.27363
1126.181, 87.47054
1126.664, 87.27699
1127.146, 86.92739
1127.628, 86.81405
1128.110, 86.92665
1128.592, 87.08973
1129.074, 87.33572
1129.556, 87.41943
1130.038, 87.29475
1130.521, 87.09431
1131.003, 86.85886
1131.485, 86.63864
1131.967, 86.48483
1132.449, 86.39651
1132.931, 86.41909
1133.413, 86.54897
1133.895, 86.39735
1134.377, 85.94170
1134.859, 85.60737
1135.342, 85.51405
1135.824, 85.62743
1136.306, 85.96091
1136.788, 86.27000
1137.270, 85.99694
1137.752, 85.31705
1138.234, 85.13615
1138.716, 85.36406
1139.199, 85.44817
1139.681, 85.31654
1140.163, 85.23853
1140.645, 85.33969
1141.127, 85.42251
1141.609, 85.20689
1142.091, 84.92603
1142.573, 85.13786
1143.056, 85.61562
1143.538, 85.83704
1144.020, 85.78521
1144.502, 85.56355
1144.984, 85.22859
1145.466, 84.91515
1145.948, 84.73049
1146.430, 84.53870
1146.912, 84.04659
1147.395, 83.56870
1147.877, 83.61061
1148.359, 83.95547
1148.841, 84.25273
1149.323, 84.40649
1149.805, 84.32517
1150.287, 83.96373
1150.769, 83.64494
1151.251, 83.65060
1151.734, 83.71354
1152.216, 83.60464
1152.698, 83.46957
1153.180, 83.45408
1153.662, 83.54117
1154.144, 83.70358
1154.626, 83.91675
1155.108, 84.05386
1155.591, 84.04615
1156.073, 83.99598
1156.555, 84.00681
1157.037, 83.91320
1157.519, 83.47555
1158.001, 82.98936
1158.483, 82.82559
1158.965, 82.90037
1159.448, 82.81937
1159.930, 82.43596
1160.412, 82.30322
1160.894, 82.81289
1161.376, 83.12537
1161.858, 82.86613
1162.340, 82.55289
1162.822, 82.53246
1163.304, 82.63103
1163.786, 82.60489
1164.269, 82.45598
1164.751, 82.23585
1165.233, 81.80388
1165.715, 81.67948
1166.197, 82.10099
1166.679, 82.30486
1167.161, 81.93257
1167.643, 81.46247
1168.126, 81.31389
1168.608, 81.37280
1169.090, 81.36110
1169.572, 81.28064
1170.054, 81.03730
1170.536, 80.59830
1171.018, 80.37767
1171.500, 80.45808
1171.983, 80.64723
1172.465, 80.85207
1172.947, 81.07568
1173.429, 81.34079
1173.911, 81.59389
1174.393, 81.67046
1174.875, 81.58986
1175.357, 81.38786
1175.839, 81.10842
1176.322, 80.99808
1176.804, 81.09795
1177.286, 81.14495
1177.768, 80.96571
1178.250, 80.69290
1178.732, 80.41106
1179.214, 80.20158
1179.696, 80.24246
1180.178, 80.43137
1180.661, 80.64222
1181.143, 80.80579
1181.625, 80.76735
1182.107, 80.50269
1182.589, 80.29453
1183.071, 80.30724
1183.553, 80.44270
1184.035, 80.83015
1184.518, 81.10735
1185.000, 80.80368
1185.482, 80.28786
1185.964, 80.08179
1186.446, 80.17133
1186.928, 80.26966
1187.410, 80.34112
1187.892, 80.25526
1188.375, 79.69573
1188.857, 79.36304
1189.339, 79.78456
1189.821, 80.19416
1190.303, 79.97861
1190.785, 79.48729
1191.267, 79.25780
1191.749, 79.28133
1192.231, 79.38817
1192.714, 79.69456
1193.196, 79.81381
1193.678, 79.65818
1194.160, 79.50861
1194.642, 79.46892
1195.124, 79.38918
1195.606, 79.11646
1196.088, 78.80664
1196.570, 78.78327
1197.053, 79.02480
1197.535, 79.24914
1198.017, 79.46017
1198.499, 79.42541
1198.981, 79.11936
1199.463, 78.82645
1199.945, 78.65569
1200.427, 78.70276
1200.910, 79.08937
1201.392, 79.59007
1201.874, 79.84234
1202.356, 79.88132
1202.838, 79.75426
1203.320, 79.50183
1203.802, 79.19456
1204.284, 78.86525
1204.766, 78.53268
1205.249, 78.21408
1205.731, 78.09667
1206.213, 78.45937
1206.695, 78.87132
1207.177, 78.97361
1207.659, 78.92336
1208.141, 78.86802
1208.623, 78.77986
1209.105, 78.50094
1209.588, 78.11912
1210.070, 78.05090
1210.552, 78.48970
1211.034, 78.84074
1211.516, 78.98153
1211.998, 78.94141
1212.480, 78.54864
1212.962, 78.17329
1213.445, 77.98093
1213.927, 78.00129
1214.409, 78.39343
1214.891, 79.07053
1215.373, 79.23631
1215.855, 78.61523
1216.337, 78.28627
1216.819, 78.37486
1217.302, 78.37318
1217.784, 78.13697
1218.266, 77.82332
1218.748, 77.50856
1219.230, 77.28104
1219.712, 77.31387
1220.194, 77.52757
1220.676, 77.53146
1221.158, 77.36633
1221.641, 77.37000
1222.123, 77.53451
1222.605, 77.57939
1223.087, 77.44297
1223.569, 77.36715
1224.051, 77.52467
1224.533, 77.63524
1225.015, 77.22148
1225.497, 76.71127
1225.979, 76.69917
1226.462, 76.95589
1226.944, 77.16002
1227.426, 77.30957
1227.908, 77.56149
1228.390, 77.90508
1228.872, 78.01406
1229.354, 77.63778
1229.836, 77.29864
1230.319, 77.17981
1230.801, 77.18282
1231.283, 77.44769
1231.765, 77.63661
1232.247, 77.34744
1232.729, 76.80688
1233.211, 76.41949
1233.693, 76.18272
1234.176, 76.56751
1234.658, 78.00683
1235.140, 78.97690
1235.622, 79.41312
1236.104, 79.26125
1236.586, 78.33157
1237.068, 77.43095
1237.550, 77.20692
1238.032, 77.28979
1238.515, 76.94624
1238.997, 76.32045
1239.479, 76.29936
1239.961, 76.75857
1240.443, 76.96502
1240.925, 76.87763
1241.407, 76.73690
1241.889, 76.62490
1242.371, 76.53481
1242.854, 76.47276
1243.336, 76.36597
1243.818, 76.05346
1244.300, 75.74352
1244.782, 75.65970
1245.264, 75.72205
1245.746, 75.91566
1246.228, 76.12810
1246.711, 76.13213
1247.193, 75.91331
1247.675, 75.71932
1248.157, 75.53332
1248.639, 75.56900
1249.121, 76.15606
1249.603, 76.59715
1250.085, 76.54280
1250.568, 76.35911
1251.050, 76.30698
1251.532, 76.26315
1252.014, 75.99766
1252.496, 75.54077
1252.978, 75.23122
1253.460, 75.07141
1253.942, 75.06609
1254.424, 75.22558
1254.906, 75.41039
1255.389, 75.58443
1255.871, 75.80856
1256.353, 76.13351
1256.835, 76.34754
1257.317, 76.10868
1257.799, 75.65604
1258.281, 75.51530
1258.763, 75.49590
1259.246, 75.09168
1259.728, 74.51832
1260.210, 74.41642
1260.692, 74.80447
1261.174, 75.18307
1261.656, 75.36365
1262.138, 75.43626
1262.620, 75.42437
1263.103, 75.34892
1263.585, 75.22036
1264.067, 75.03136
1264.549, 74.68754
1265.031, 74.34196
1265.513, 74.19296
1265.995, 74.21914
1266.477, 74.32281
1266.959, 74.55220
1267.442, 74.61123
1267.924, 74.43793
1268.406, 74.33191
1268.888, 74.35593
1269.370, 74.35501
1269.852, 74.25622
1270.334, 74.15257
1270.816, 74.14745
1271.298, 74.14463
1271.781, 73.84965
1272.263, 73.44231
1272.745, 73.56319
1273.227, 73.96383
1273.709, 73.89889
1274.191, 73.43754
1274.673, 73.15107
1275.155, 73.19541
1275.638, 73.27736
1276.120, 73.21665
1276.602, 73.21916
1277.084, 73.58340
1277.566, 73.82254
1278.048, 73.42764
1278.530, 72.98176
1279.012, 73.13871
1279.495, 73.56850
1279.977, 73.55614
1280.459, 73.13017
1280.941, 72.81236
##END=



