##NAMES=Wittichenite
##RRUFFID=R050327
##IDEAL CHEMISTRY=Cu_3_BiS_3_
##LOCALITY=Grube Daniel, Wittichen, Schwarzwald, Germany
##OWNER=RRUFF
##SOURCE=Marcus Origlieri
##DESCRIPTION=Tin-white metallic blebs
##STATUS=The identification of this mineral has been confirmed by X-ray diffraction and chemical analysis
##URL=rruff.info/R050327
##MEASURED CHEMISTRY=Cu_3.00_Bi_1.00_S_3.00_
123.939, 0.000
124.421, 41.237
124.903, 95.879
125.385, 162.893
125.867, 242.007
126.349, 333.644
126.831, 446.395
127.313, 563.840
127.796, 684.072
128.278, 806.667
128.760, 933.003
129.242, 1063.354
129.724, 1198.173
130.206, 1333.830
130.688, 1509.190
131.170, 1648.851
131.652, 1734.538
132.135, 1764.544
132.617, 1737.594
133.099, 1648.530
133.581, 1491.579
134.063, 1331.393
134.545, 1157.334
135.027, 989.403
135.509, 835.617
135.992, 697.209
136.474, 573.348
136.956, 462.690
137.438, 366.209
137.920, 297.553
138.402, 272.453
138.884, 261.176
139.366, 240.399
139.848, 208.981
140.331, 185.790
140.813, 192.324
141.295, 236.258
141.777, 273.273
142.259, 294.160
142.741, 312.293
143.223, 341.783
143.705, 385.063
144.188, 430.533
144.670, 463.933
145.152, 483.829
145.634, 508.541
146.116, 543.627
146.598, 583.575
147.080, 625.136
147.562, 669.631
148.044, 706.404
148.527, 718.608
149.009, 707.946
149.491, 691.387
149.973, 674.808
150.455, 654.694
150.937, 622.592
151.419, 573.244
151.901, 520.704
152.383, 483.255
152.866, 459.920
153.348, 435.907
153.830, 397.129
154.312, 353.635
154.794, 332.613
155.276, 348.316
155.758, 373.418
156.240, 373.854
156.723, 350.230
157.205, 330.367
157.687, 332.354
158.169, 350.537
158.651, 363.397
159.133, 365.707
159.615, 361.473
160.097, 352.873
160.579, 339.651
161.062, 331.613
161.544, 342.632
162.026, 367.943
162.508, 376.980
162.990, 355.738
163.472, 323.215
163.954, 297.008
164.436, 277.709
164.919, 260.663
165.401, 241.899
165.883, 221.689
166.365, 206.230
166.847, 198.902
167.329, 195.413
167.811, 193.283
168.293, 192.610
168.775, 190.427
169.258, 182.892
169.740, 170.042
170.222, 160.381
170.704, 161.099
171.186, 160.853
171.668, 148.808
172.150, 124.290
172.632, 100.977
173.115, 94.580
173.597, 106.383
174.079, 111.441
174.561, 97.227
175.043, 80.632
175.525, 73.650
176.007, 77.367
176.489, 82.653
176.971, 80.507
177.454, 70.297
177.936, 58.764
178.418, 44.871
178.900, 31.533
179.382, 19.570
179.864, 9.259
180.346, 2.225
180.828, 1.728
181.311, 9.000
181.793, 13.584
182.275, 10.943
182.757, 7.378
183.239, 5.925
183.721, 7.062
184.203, 9.875
184.685, 14.464
185.167, 21.633
185.650, 25.527
186.132, 22.164
186.614, 17.338
187.096, 14.266
187.578, 13.218
188.060, 11.836
188.542, 5.063
189.024, 9.748
189.507, 14.706
189.989, 22.442
190.471, 13.057
190.953, 7.826
191.435, 6.525
191.917, 20.933
192.399, 15.054
192.881, 17.304
193.363, 19.887
193.846, 11.149
194.328, 23.268
194.810, 14.710
195.292, 14.405
195.774, 10.322
196.256, 14.419
196.738, 15.989
197.220, 9.377
197.702, 7.295
198.185, 12.332
198.667, 8.009
199.149, 20.412
199.631, 16.778
200.113, 25.096
200.595, 14.321
201.077, 8.181
201.559, 6.428
202.042, 22.195
202.524, 15.339
203.006, 17.551
203.488, 20.134
203.970, 10.096
204.452, 23.319
204.934, 13.482
205.416, 12.852
205.898, 8.008
206.381, 12.289
206.863, 13.753
207.345, 6.090
207.827, 3.482
208.309, 8.815
208.791, 3.707
209.273, 17.255
209.755, 12.917
210.238, 19.628
210.720, 7.619
211.202, 0.155
211.684, 3.009
212.166, 11.005
212.648, 2.838
213.130, 3.561
213.612, 4.649
214.094, 6.640
214.577, 4.879
215.059, 6.210
215.541, 8.273
216.023, 14.465
216.505, 11.711
216.987, 11.717
217.469, 20.671
217.951, 24.668
218.434, 20.880
218.916, 27.327
219.398, 15.484
219.880, 19.687
220.362, 30.816
220.844, 24.396
221.326, 43.649
221.808, 38.183
222.290, 31.701
222.773, 59.633
223.255, 24.149
223.737, 51.533
224.219, 53.821
224.701, 50.291
225.183, 58.091
225.665, 66.894
226.147, 74.388
226.629, 76.473
227.112, 69.430
227.594, 59.420
228.076, 45.441
228.558, 70.596
229.040, 86.252
229.522, 92.918
230.004, 63.671
230.486, 80.799
230.969, 79.342
231.451, 77.122
231.933, 100.777
232.415, 76.753
232.897, 99.998
233.379, 104.373
233.861, 104.376
234.343, 115.441
234.825, 136.208
235.307, 156.896
235.790, 163.889
236.272, 155.078
236.754, 149.448
237.236, 157.292
237.718, 166.787
238.200, 167.754
238.682, 158.374
239.165, 147.842
239.647, 143.017
240.129, 143.886
240.611, 152.309
241.093, 177.340
241.575, 202.117
242.057, 210.777
242.539, 203.072
243.021, 195.360
243.503, 201.069
243.986, 217.691
244.468, 230.681
244.950, 237.819
245.432, 240.595
245.914, 237.133
246.396, 228.876
246.878, 227.093
247.361, 241.678
247.843, 267.154
248.325, 290.619
248.807, 313.635
249.289, 327.910
249.771, 317.523
250.253, 290.780
250.735, 275.579
251.217, 288.337
251.699, 316.587
252.182, 341.418
252.664, 361.443
253.146, 380.367
253.628, 403.149
254.110, 426.956
254.592, 443.669
255.074, 442.306
255.556, 438.925
256.039, 454.831
256.521, 490.333
257.003, 518.008
257.485, 516.273
257.967, 494.853
258.449, 487.923
258.931, 503.650
259.413, 526.968
259.896, 553.356
260.378, 580.996
260.860, 599.670
261.342, 603.059
261.824, 595.475
262.306, 588.321
262.788, 576.563
263.270, 573.259
263.752, 588.682
264.235, 616.109
264.717, 641.226
265.199, 658.958
265.681, 672.047
266.163, 686.320
266.645, 704.750
267.127, 717.457
267.609, 718.478
268.091, 714.377
268.574, 712.425
269.056, 714.441
269.538, 720.934
270.020, 733.716
270.502, 758.563
270.984, 773.365
271.466, 765.345
271.948, 755.670
272.431, 765.212
272.913, 794.294
273.395, 823.112
273.877, 831.268
274.359, 814.302
274.841, 805.857
275.323, 806.811
275.805, 813.885
276.288, 826.810
276.770, 844.675
277.252, 866.318
277.734, 891.928
278.216, 920.858
278.698, 941.529
279.180, 944.619
279.662, 949.798
280.144, 962.219
280.626, 979.472
281.109, 997.877
281.591, 1015.625
282.073, 1032.458
282.555, 1047.391
283.037, 1060.812
283.519, 1071.555
284.001, 1078.214
284.483, 1083.015
284.966, 1087.736
285.448, 1093.001
285.930, 1099.045
286.412, 1107.782
286.894, 1124.319
287.376, 1129.685
287.858, 1109.777
288.340, 1088.578
288.823, 1084.530
289.305, 1097.609
289.787, 1109.939
290.269, 1101.787
290.751, 1071.621
291.233, 1042.576
291.715, 1015.955
292.197, 990.062
292.679, 963.880
293.162, 937.683
293.644, 912.518
294.126, 889.206
294.608, 867.514
295.090, 847.258
295.572, 829.899
296.054, 810.839
296.536, 788.508
297.018, 762.924
297.501, 733.554
297.983, 698.161
298.465, 660.861
298.947, 625.173
299.429, 590.029
299.911, 565.691
300.393, 565.802
300.875, 575.044
301.358, 571.287
301.840, 548.905
302.322, 522.496
302.804, 499.125
303.286, 479.584
303.768, 469.432
304.250, 475.226
304.732, 483.627
305.215, 471.479
305.697, 435.644
306.179, 408.034
306.661, 406.124
307.143, 415.816
307.625, 416.054
308.107, 402.681
308.589, 385.139
309.071, 375.915
309.553, 376.962
310.036, 358.370
310.518, 288.621
311.000, 222.948
311.482, 209.790
311.964, 241.440
312.446, 270.278
312.928, 261.007
313.410, 217.854
313.893, 192.550
314.375, 196.760
314.857, 202.078
315.339, 199.890
315.821, 193.872
316.303, 191.226
316.785, 195.384
317.267, 202.475
317.750, 203.009
318.232, 192.802
318.714, 181.502
319.196, 166.458
319.678, 152.413
320.160, 143.841
320.642, 141.343
321.124, 141.101
321.606, 136.945
322.089, 125.391
322.571, 124.827
323.053, 154.680
323.535, 178.208
324.017, 175.146
324.499, 151.792
324.981, 128.601
325.463, 120.440
325.945, 124.536
326.428, 125.687
326.910, 120.151
327.392, 118.379
327.874, 127.589
328.356, 141.502
328.838, 152.637
329.320, 159.640
329.802, 159.838
330.284, 144.952
330.767, 113.053
331.249, 90.205
331.731, 90.339
332.213, 99.773
332.695, 102.080
333.177, 95.283
333.659, 91.132
334.142, 103.567
334.624, 124.369
335.106, 128.020
335.588, 106.074
336.070, 77.729
336.552, 63.807
337.034, 62.933
337.516, 60.859
337.998, 52.053
338.480, 43.197
338.963, 42.256
339.445, 48.523
339.927, 52.328
340.409, 46.084
340.891, 31.622
341.373, 23.831
341.855, 28.533
342.337, 32.105
342.819, 28.256
343.302, 20.963
343.784, 17.475
344.266, 20.742
344.748, 26.999
345.230, 28.567
345.712, 19.784
346.194, 15.878
346.677, 19.123
347.159, 25.271
347.641, 34.879
348.123, 45.722
348.605, 49.800
349.087, 36.203
349.569, 2.701
350.051, 14.845
350.533, 0.566
351.016, 14.065
351.498, 17.128
351.980, 14.139
352.462, 1.517
352.944, 15.989
353.426, 23.879
353.908, 25.543
354.390, 2.334
354.872, 11.243
355.355, 7.279
355.837, 2.787
356.319, 16.215
356.801, 3.379
357.283, 9.763
357.765, 9.838
358.247, 15.891
358.729, 8.995
359.211, 6.098
359.694, 16.154
360.176, 19.037
360.658, 10.646
361.140, 17.077
361.622, 2.975
362.104, 0.210
362.586, 13.423
363.069, 1.227
363.551, 12.790
364.033, 22.888
364.515, 28.482
364.997, 26.768
365.479, 9.855
365.961, 3.977
366.443, 7.862
366.925, 5.823
367.408, 3.172
367.890, 1.749
368.372, 1.444
368.854, 2.323
369.336, 5.853
369.818, 7.003
370.300, 5.885
370.782, 2.742
371.264, 8.526
371.747, 12.143
372.229, 13.708
372.711, 7.087
373.193, 11.069
373.675, 10.844
374.157, 10.472
374.639, 16.018
375.121, 10.676
375.603, 16.029
376.086, 17.065
376.568, 20.070
377.050, 18.808
377.532, 18.917
378.014, 23.314
378.496, 25.311
378.978, 23.585
379.460, 26.802
379.943, 21.346
380.425, 23.526
380.907, 28.954
381.389, 27.460
381.871, 30.753
382.353, 32.292
382.835, 25.609
383.317, 33.121
383.799, 34.402
384.282, 29.338
384.764, 32.123
385.246, 6.944
385.728, 16.121
386.210, 24.677
386.692, 21.411
387.174, 7.570
387.656, 17.191
388.138, 41.686
388.621, 44.858
389.103, 7.422
389.585, 10.617
390.067, 11.435
390.549, 34.729
391.031, 29.955
391.513, 1.184
391.996, 25.857
392.478, 29.145
392.960, 12.003
393.442, 6.754
393.924, 28.389
394.406, 39.554
394.888, 22.409
395.370, 5.351
395.852, 23.488
396.335, 25.231
396.817, 20.273
397.299, 20.181
397.781, 24.995
398.263, 27.750
398.745, 27.548
399.227, 24.413
399.709, 17.555
400.191, 7.576
400.674, 1.788
401.156, 13.575
401.638, 21.546
402.120, 11.892
402.602, 14.616
403.084, 31.613
403.566, 20.211
404.048, 10.833
404.530, 27.891
405.013, 28.646
405.495, 21.669
405.977, 2.455
406.459, 28.345
406.941, 32.682
407.423, 10.930
407.905, 18.109
408.387, 30.849
408.870, 24.198
409.352, 15.793
409.834, 2.581
410.316, 9.174
410.798, 18.028
411.280, 23.449
411.762, 23.746
412.244, 17.004
412.727, 7.810
413.209, 8.762
413.691, 24.721
414.173, 35.684
414.655, 31.778
415.137, 24.169
415.619, 18.653
416.101, 16.187
416.583, 19.006
417.065, 35.130
417.548, 57.013
418.030, 63.767
418.512, 51.471
418.994, 36.125
419.476, 28.067
419.958, 26.264
420.440, 24.874
420.922, 25.124
421.405, 24.194
421.887, 19.551
422.369, 21.932
422.851, 22.608
423.333, 21.733
423.815, 14.434
424.297, 15.487
424.779, 13.191
425.262, 10.756
425.744, 12.981
426.226, 6.615
426.708, 8.763
427.190, 7.511
427.672, 7.813
428.154, 4.746
428.636, 2.717
429.118, 4.056
429.601, 3.529
430.083, 1.644
430.565, 7.500
431.047, 15.440
431.529, 21.839
432.011, 25.848
432.493, 23.365
432.975, 2.708
433.457, 26.998
433.940, 34.420
434.422, 11.976
434.904, 12.644
435.386, 17.980
435.868, 9.173
436.350, 7.074
436.832, 21.785
437.314, 33.978
437.797, 29.596
438.279, 16.589
438.761, 12.203
439.243, 22.324
439.725, 35.259
440.207, 33.701
440.689, 12.294
441.171, 7.275
441.654, 3.052
442.136, 7.642
442.618, 10.091
443.100, 10.515
443.582, 2.778
444.064, 5.449
444.546, 3.991
445.028, 2.373
445.510, 6.617
445.992, 0.120
446.475, 4.269
446.957, 3.388
447.439, 3.446
447.921, 15.136
448.403, 21.698
448.885, 6.482
449.367, 18.480
449.849, 31.912
450.332, 32.386
450.814, 19.633
451.296, 14.968
451.778, 60.256
452.260, 77.126
452.742, 44.386
453.224, 16.154
453.706, 11.886
454.189, 19.159
454.671, 22.753
455.153, 19.384
455.635, 14.823
456.117, 15.049
456.599, 20.190
457.081, 28.686
457.563, 53.622
458.045, 67.631
458.528, 49.330
459.010, 20.634
459.492, 17.445
459.974, 55.580
460.456, 98.564
460.938, 85.717
461.420, 15.926
461.902, 22.272
462.384, 0.777
462.867, 34.419
463.349, 46.711
463.831, 40.577
464.313, 32.173
464.795, 21.467
465.277, 13.951
465.759, 16.372
466.241, 26.623
466.724, 37.694
467.206, 47.514
467.688, 53.422
468.170, 49.429
468.652, 25.688
469.134, 12.649
469.616, 23.280
470.098, 33.391
470.581, 23.300
471.063, 1.408
471.545, 20.892
472.027, 21.705
472.509, 8.525
472.991, 4.457
473.473, 18.204
473.955, 29.456
474.437, 16.141
474.919, 13.045
475.402, 18.170
475.884, 21.298
476.366, 22.538
476.848, 16.232
477.330, 19.666
477.812, 19.196
478.294, 18.564
478.776, 23.368
479.259, 18.154
479.741, 22.870
480.223, 23.622
480.705, 26.187
481.187, 24.825
481.669, 24.674
482.151, 28.451
482.633, 30.052
483.116, 28.234
483.598, 30.909
484.080, 27.342
484.562, 32.750
485.044, 33.873
485.526, 22.106
486.008, 19.806
486.490, 45.337
486.972, 74.769
487.455, 79.327
487.937, 52.845
488.419, 26.115
488.901, 31.080
489.383, 57.329
489.865, 68.938
490.347, 60.802
490.829, 46.722
491.311, 31.957
491.794, 19.053
492.276, 17.368
492.758, 43.334
493.240, 59.881
493.722, 48.183
494.204, 22.693
494.686, 0.900
495.168, 17.826
495.651, 24.467
496.133, 14.864
496.615, 12.185
497.097, 28.317
497.579, 26.668
498.061, 22.046
498.543, 12.491
499.025, 4.670
499.508, 10.273
499.990, 33.409
500.472, 53.041
500.954, 40.631
501.436, 5.062
501.918, 10.361
502.400, 3.637
502.882, 23.047
503.364, 31.068
503.846, 29.217
504.329, 27.560
504.811, 28.113
505.293, 26.812
505.775, 19.318
506.257, 10.072
506.739, 5.186
507.221, 6.117
507.703, 11.261
508.186, 20.132
508.668, 33.530
509.150, 30.089
509.632, 34.354
510.114, 36.741
510.596, 37.351
511.078, 30.862
511.560, 33.539
512.042, 32.542
512.525, 31.393
513.007, 35.359
513.489, 29.900
513.971, 33.783
514.453, 33.936
514.935, 35.796
515.417, 33.958
515.899, 33.262
516.382, 36.263
516.864, 37.217
517.346, 34.952
517.828, 33.042
518.310, 42.618
518.792, 46.266
519.274, 42.910
519.756, 37.042
520.239, 32.419
520.721, 29.109
521.203, 34.442
521.685, 59.459
522.167, 75.697
522.649, 69.558
523.131, 54.808
523.613, 45.508
524.096, 44.537
524.578, 46.160
525.060, 47.143
525.542, 47.551
526.024, 46.682
526.506, 44.281
526.988, 43.449
527.470, 46.714
527.952, 52.952
528.435, 57.548
528.917, 65.178
529.399, 64.837
529.881, 47.796
530.363, 27.162
530.845, 12.434
531.327, 5.706
531.809, 7.759
532.291, 21.879
532.774, 43.308
533.256, 48.987
533.738, 32.329
534.220, 18.505
534.702, 12.621
535.184, 14.397
535.666, 27.697
536.148, 52.377
536.630, 71.038
537.113, 72.181
537.595, 65.774
538.077, 62.595
538.559, 62.750
539.041, 62.895
539.523, 61.594
540.005, 58.617
540.487, 52.891
540.969, 40.832
541.452, 33.487
541.934, 34.375
542.416, 36.257
542.898, 33.931
543.380, 29.506
543.862, 29.468
544.344, 38.588
544.826, 49.207
545.309, 44.649
545.791, 25.123
546.273, 20.855
546.755, 45.729
547.237, 73.609
547.719, 76.132
548.201, 57.092
548.683, 43.829
549.166, 44.665
549.648, 46.516
550.130, 40.660
550.612, 31.927
551.094, 30.324
551.576, 38.246
552.058, 46.512
552.540, 42.429
553.023, 24.591
553.505, 14.959
553.987, 12.603
554.469, 20.830
554.951, 55.223
555.433, 92.658
555.915, 102.009
556.397, 74.093
556.879, 42.184
557.362, 30.012
557.844, 29.496
558.326, 25.611
558.808, 16.906
559.290, 7.236
559.772, 2.391
560.254, 9.953
560.736, 8.273
561.218, 15.902
561.701, 31.565
562.183, 31.268
562.665, 27.759
563.147, 30.682
563.629, 39.001
564.111, 46.164
564.593, 49.003
565.075, 46.638
565.557, 32.273
566.040, 4.409
566.522, 6.863
567.004, 13.430
567.486, 42.181
567.968, 53.255
568.450, 48.493
568.932, 45.843
569.414, 52.754
569.896, 57.064
570.379, 45.822
570.861, 29.152
571.343, 27.353
571.825, 45.985
572.307, 69.229
572.789, 76.967
573.271, 68.452
573.753, 60.461
574.236, 54.633
574.718, 46.711
575.200, 29.114
575.682, 11.505
576.164, 6.942
576.646, 19.338
577.128, 32.319
577.610, 34.911
578.093, 33.406
578.575, 39.163
579.057, 51.516
579.539, 57.042
580.021, 46.355
580.503, 26.825
580.985, 20.510
581.467, 44.964
581.950, 50.571
582.432, 16.693
582.914, 15.192
583.396, 21.276
583.878, 6.830
584.360, 12.899
584.842, 34.888
585.324, 49.941
585.806, 40.747
586.289, 12.585
586.771, 7.068
587.253, 12.316
587.735, 9.245
588.217, 2.129
588.699, 8.869
589.181, 19.891
589.663, 40.375
590.145, 49.007
590.628, 23.872
591.110, 4.751
591.592, 0.091
592.074, 37.805
592.556, 73.560
593.038, 78.085
593.520, 58.359
594.002, 30.129
594.484, 10.724
594.967, 28.470
595.449, 2.327
595.931, 46.143
596.413, 50.077
596.895, 13.177
597.377, 9.476
597.859, 1.218
598.341, 17.579
598.823, 24.046
599.306, 24.406
599.788, 26.714
600.270, 33.823
600.752, 43.766
601.234, 57.355
601.716, 74.867
602.198, 74.042
602.680, 44.930
603.162, 17.736
603.645, 1.479
604.127, 2.743
604.609, 12.575
605.091, 54.719
605.573, 82.562
606.055, 66.154
606.537, 37.585
607.019, 28.826
607.502, 38.243
607.984, 50.996
608.466, 59.870
608.948, 63.730
609.430, 59.296
609.912, 43.788
610.394, 29.733
610.876, 12.314
611.359, 3.066
611.841, 9.781
612.323, 27.139
612.805, 47.056
613.287, 71.016
613.769, 66.572
614.251, 71.955
614.733, 74.951
615.216, 75.690
615.698, 67.412
616.180, 70.777
616.662, 69.476
617.144, 67.984
617.626, 72.977
618.108, 65.966
618.590, 70.832
619.072, 70.994
619.555, 73.325
620.037, 70.961
620.519, 70.046
621.001, 73.828
621.483, 75.010
621.965, 72.104
622.447, 69.649
622.929, 15.474
623.411, 5.082
623.894, 18.329
624.376, 46.649
624.858, 47.413
625.340, 24.939
625.822, 8.207
626.304, 9.406
626.786, 9.687
627.268, 26.835
627.750, 64.757
628.233, 79.932
628.715, 74.018
629.197, 61.580
629.679, 46.062
630.161, 31.495
630.643, 19.151
631.125, 11.370
631.607, 20.835
632.089, 51.373
632.572, 77.594
633.054, 72.323
633.536, 38.193
634.018, 21.666
634.500, 39.861
634.982, 52.127
635.464, 50.999
635.946, 44.130
636.429, 35.458
636.911, 26.472
637.393, 20.042
637.875, 17.331
638.357, 18.335
638.839, 26.471
639.321, 38.920
639.803, 43.974
640.286, 38.217
640.768, 27.320
641.250, 16.239
641.732, 5.131
642.214, 0.055
642.696, 0.294
643.178, 7.574
643.660, 34.588
644.143, 59.396
644.625, 58.107
645.107, 33.440
645.589, 13.980
646.071, 18.094
646.553, 33.908
647.035, 52.652
647.517, 71.158
647.999, 74.555
648.482, 57.706
648.964, 36.871
649.446, 29.162
649.928, 34.569
650.410, 41.265
650.892, 57.748
651.374, 63.320
651.856, 43.571
652.338, 20.212
652.821, 11.742
653.303, 18.675
653.785, 29.255
654.267, 40.702
654.749, 49.959
655.231, 52.131
655.713, 49.142
656.195, 46.254
656.677, 44.895
657.160, 45.123
657.642, 47.149
658.124, 50.911
658.606, 55.573
659.088, 70.137
659.570, 70.588
660.052, 34.129
660.534, 2.694
661.016, 5.669
661.499, 21.178
661.981, 41.298
662.463, 32.755
662.945, 17.085
663.427, 13.038
663.909, 16.695
664.391, 19.134
664.873, 18.283
665.356, 17.301
665.838, 18.791
666.320, 23.058
666.802, 33.442
667.284, 55.578
667.766, 71.312
668.248, 73.820
668.730, 71.232
669.213, 68.838
669.695, 66.335
670.177, 61.131
670.659, 47.321
671.141, 36.449
671.623, 40.418
672.105, 50.233
672.587, 47.852
673.070, 32.857
673.552, 26.431
674.034, 48.356
674.516, 87.301
674.998, 100.457
675.480, 81.573
675.962, 63.786
676.444, 51.530
676.926, 43.475
677.409, 36.913
677.891, 33.327
678.373, 39.117
678.855, 65.343
679.337, 86.748
679.819, 98.234
680.301, 97.661
680.783, 74.380
681.265, 35.005
681.748, 3.804
682.230, 3.677
682.712, 4.216
683.194, 14.989
683.676, 28.585
684.158, 32.802
684.640, 22.861
685.122, 12.861
685.604, 13.581
686.087, 21.733
686.569, 24.254
687.051, 18.697
687.533, 12.424
688.015, 2.925
688.497, 4.028
688.979, 3.105
689.461, 3.385
689.943, 9.028
690.426, 10.665
690.908, 14.414
691.390, 34.273
691.872, 61.903
692.354, 66.008
692.836, 43.585
693.318, 19.284
693.800, 5.845
694.283, 0.157
694.765, 4.301
695.247, 8.346
695.729, 8.957
696.211, 2.972
696.693, 2.753
697.175, 3.483
697.657, 3.498
698.140, 11.043
698.622, 28.279
699.104, 39.817
699.586, 32.762
700.068, 16.671
700.550, 1.071
701.032, 17.316
701.514, 21.885
701.997, 10.974
702.479, 7.793
702.961, 26.360
703.443, 44.759
703.925, 52.059
704.407, 42.828
704.889, 33.904
705.371, 29.711
705.853, 28.614
706.336, 29.819
706.818, 33.160
707.300, 35.552
707.782, 37.075
708.264, 36.609
708.746, 31.633
709.228, 25.189
709.710, 21.446
710.192, 20.997
710.675, 22.006
711.157, 23.499
711.639, 24.745
712.121, 23.879
712.603, 20.894
713.085, 16.208
713.567, 10.516
714.049, 16.120
714.531, 18.980
715.014, 19.248
715.496, 9.149
715.978, 12.434
716.460, 10.356
716.942, 8.058
717.424, 13.226
717.906, 4.635
718.388, 9.671
718.870, 9.252
719.353, 11.347
719.835, 8.047
720.317, 6.413
720.799, 10.204
721.281, 4.975
721.763, 10.698
722.245, 14.975
722.727, 5.271
723.210, 12.107
723.692, 24.824
724.174, 30.898
724.656, 43.272
725.138, 72.717
725.620, 91.113
726.102, 74.956
726.584, 47.781
727.067, 37.602
727.549, 47.630
728.031, 54.884
728.513, 51.715
728.995, 45.187
729.477, 37.949
729.959, 31.169
730.441, 24.730
730.924, 19.436
731.406, 20.150
731.888, 35.465
732.370, 56.525
732.852, 54.826
733.334, 31.098
733.816, 22.272
734.298, 40.728
734.780, 62.273
735.263, 64.370
735.745, 49.316
736.227, 38.430
736.709, 37.447
737.191, 32.307
737.673, 12.391
738.155, 2.851
738.637, 1.469
739.119, 20.001
739.602, 39.149
740.084, 56.172
740.566, 68.146
741.048, 75.003
741.530, 74.375
742.012, 54.892
742.494, 23.337
742.976, 8.227
743.458, 23.765
743.941, 50.642
744.423, 56.995
744.905, 42.451
745.387, 38.865
745.869, 51.127
746.351, 56.921
746.833, 42.113
747.315, 21.959
747.797, 21.363
748.280, 44.292
748.762, 51.036
749.244, 20.951
749.726, 1.628
750.208, 2.870
750.690, 18.255
751.172, 28.208
751.654, 31.280
752.137, 35.456
752.619, 49.811
753.101, 60.630
753.583, 46.535
754.065, 17.691
754.547, 3.062
755.029, 11.554
755.511, 7.740
755.994, 10.410
756.476, 35.173
756.958, 45.151
757.440, 36.637
757.922, 32.397
758.404, 35.053
758.886, 39.841
759.368, 47.907
759.851, 55.047
760.333, 50.946
760.815, 29.591
761.297, 21.584
761.779, 51.895
762.261, 75.053
762.743, 59.587
763.225, 26.004
763.707, 2.676
764.190, 3.970
764.672, 2.797
765.154, 2.045
765.636, 8.958
766.118, 15.479
766.600, 21.966
767.082, 31.305
767.564, 43.886
768.046, 52.618
768.529, 51.043
769.011, 41.229
769.493, 30.131
769.975, 15.152
770.457, 9.085
770.939, 18.228
771.421, 29.358
771.903, 36.460
772.385, 39.252
772.868, 34.997
773.350, 16.084
773.832, 11.544
774.314, 47.413
774.796, 78.065
775.278, 70.088
775.760, 41.350
776.242, 21.633
776.724, 18.332
777.207, 18.158
777.689, 6.340
778.171, 5.948
778.653, 5.860
779.135, 32.792
779.617, 39.956
780.099, 19.199
780.581, 6.038
781.064, 16.255
781.546, 11.940
782.028, 9.284
782.510, 54.988
782.992, 83.958
783.474, 87.901
783.956, 79.227
784.438, 59.338
784.920, 34.077
785.403, 20.251
785.885, 20.508
786.367, 25.425
786.849, 44.148
787.331, 56.547
787.813, 43.422
788.295, 21.095
788.778, 14.740
789.260, 29.195
789.742, 46.988
790.224, 63.864
790.706, 72.517
791.188, 57.180
791.670, 28.362
792.152, 10.886
792.634, 9.825
793.117, 14.735
793.599, 16.959
794.081, 19.502
794.563, 34.548
795.045, 63.628
795.527, 76.132
796.009, 64.466
796.491, 57.189
796.973, 63.808
797.456, 67.054
797.938, 67.108
798.420, 54.409
798.902, 58.176
799.384, 55.345
799.866, 52.243
800.348, 58.329
800.830, 47.522
801.312, 53.469
801.795, 52.708
802.277, 55.014
802.759, 50.679
803.241, 48.221
803.723, 30.291
804.205, 1.644
804.687, 6.814
805.169, 42.940
805.652, 66.061
806.134, 46.633
806.616, 14.194
807.098, 19.157
807.580, 50.719
808.062, 60.003
808.544, 43.006
809.026, 21.558
809.508, 4.828
809.991, 5.087
810.473, 2.836
810.955, 13.476
811.437, 17.078
811.919, 3.948
812.401, 11.512
812.883, 22.120
813.365, 57.241
813.847, 46.963
814.330, 0.127
814.812, 25.603
815.294, 12.682
815.776, 4.649
816.258, 22.882
816.740, 39.260
817.222, 54.147
817.705, 65.124
818.187, 66.462
818.669, 55.523
819.151, 42.644
819.633, 32.565
820.115, 26.863
820.597, 30.585
821.079, 40.190
821.561, 45.810
822.044, 44.859
822.526, 41.983
823.008, 40.566
823.490, 41.689
823.972, 52.185
824.454, 71.762
824.936, 78.504
825.418, 66.895
825.901, 51.284
826.383, 40.268
826.865, 33.964
827.347, 33.370
827.829, 41.454
828.311, 47.230
828.793, 43.530
829.275, 48.233
829.757, 50.897
830.240, 51.630
830.722, 44.650
831.204, 47.629
831.686, 46.617
832.168, 45.441
832.650, 49.821
833.132, 43.963
833.614, 48.255
834.096, 48.494
834.579, 50.589
835.061, 48.667
835.543, 47.994
836.025, 51.315
836.507, 52.426
836.989, 50.041
837.471, 52.253
837.953, 46.253
838.435, 47.432
838.918, 51.677
839.400, 48.063
839.882, 49.679
840.364, 21.974
840.846, 26.639
841.328, 62.311
841.810, 76.429
842.292, 54.146
842.774, 31.895
843.257, 40.241
843.739, 66.960
844.221, 69.326
844.703, 32.778
845.185, 16.423
845.667, 34.678
846.149, 51.550
846.631, 45.982
847.114, 33.744
847.596, 40.436
848.078, 68.359
848.560, 81.685
849.042, 63.777
849.524, 48.265
850.006, 44.443
850.488, 47.794
850.971, 61.858
851.453, 79.369
851.935, 78.034
852.417, 42.448
852.899, 12.114
853.381, 21.214
853.863, 40.223
854.345, 34.553
854.828, 13.347
855.310, 3.183
855.792, 11.359
856.274, 23.350
856.756, 27.939
857.238, 25.951
857.720, 11.567
858.202, 8.820
858.684, 1.472
859.167, 37.505
859.649, 64.645
860.131, 49.453
860.613, 11.717
861.095, 5.384
861.577, 0.134
862.059, 5.401
862.541, 27.740
863.023, 32.866
863.506, 0.382
863.988, 41.298
864.470, 50.282
864.952, 28.086
865.434, 21.405
865.916, 47.506
866.398, 59.963
866.880, 37.337
867.362, 15.705
867.845, 17.436
868.327, 33.916
868.809, 48.865
869.291, 63.677
869.773, 65.602
870.255, 37.377
870.737, 12.255
871.219, 7.368
871.701, 14.521
872.184, 27.343
872.666, 42.146
873.148, 49.551
873.630, 41.794
874.112, 30.990
874.594, 23.017
875.076, 19.250
875.558, 26.276
876.041, 38.828
876.523, 40.636
877.005, 25.582
877.487, 6.965
877.969, 5.249
878.451, 9.729
878.933, 0.881
879.415, 22.386
879.898, 38.210
880.380, 44.580
880.862, 44.082
881.344, 37.849
881.826, 28.897
882.308, 24.733
882.790, 25.304
883.272, 23.838
883.755, 19.825
884.237, 13.589
884.719, 3.213
885.201, 3.177
885.683, 6.373
886.165, 31.357
886.647, 50.729
887.129, 65.696
887.611, 71.664
888.094, 63.586
888.576, 52.407
889.058, 43.567
889.540, 37.294
890.022, 34.978
890.504, 39.347
890.986, 39.074
891.468, 31.043
891.950, 21.712
892.433, 8.534
892.915, 1.568
893.397, 2.311
893.879, 6.357
894.361, 22.352
894.843, 54.608
895.325, 77.543
895.807, 76.257
896.289, 66.488
896.772, 58.271
897.254, 51.718
897.736, 45.099
898.218, 37.910
898.700, 30.010
899.182, 19.621
899.664, 10.133
900.146, 2.638
900.628, 0.886
901.111, 6.286
901.593, 21.149
902.075, 31.105
902.557, 29.699
903.039, 26.850
903.521, 31.902
904.003, 35.036
904.485, 36.354
904.968, 30.423
905.450, 33.853
905.932, 33.532
906.414, 33.057
906.896, 37.806
907.378, 32.928
907.860, 37.594
908.342, 38.449
908.825, 41.049
909.307, 39.874
909.789, 39.863
910.271, 43.629
910.753, 45.305
911.235, 43.694
911.717, 46.405
912.199, 41.395
912.682, 43.159
913.164, 47.878
913.646, 46.456
914.128, 49.235
914.610, 50.414
915.092, 44.324
915.574, 50.875
916.056, 51.921
916.538, 47.383
917.021, 53.502
917.503, 49.747
917.985, 49.515
918.467, 51.936
918.949, 51.568
919.431, 55.581
919.913, 55.372
920.395, 54.694
920.877, 55.632
921.360, 52.069
921.842, 57.115
922.324, 56.282
922.806, 58.370
923.288, 58.194
923.770, 55.673
924.252, 52.266
924.734, 50.857
925.216, 49.556
925.699, 45.962
926.181, 43.993
926.663, 47.583
927.145, 54.857
927.627, 63.543
928.109, 73.389
928.591, 75.637
929.073, 58.089
929.555, 39.973
930.038, 36.822
930.520, 39.890
931.002, 38.027
931.484, 31.062
931.966, 24.219
932.448, 19.469
932.930, 17.126
933.412, 18.068
933.895, 21.075
934.377, 22.610
934.859, 25.668
935.341, 43.648
935.823, 73.717
936.305, 84.112
936.787, 47.056
937.269, 1.678
937.752, 4.610
938.234, 34.802
938.716, 51.594
939.198, 53.514
939.680, 46.067
940.162, 32.200
940.644, 22.678
941.126, 30.221
941.609, 45.285
942.091, 45.495
942.573, 34.099
943.055, 22.586
943.537, 13.213
944.019, 15.431
944.501, 34.344
944.983, 54.012
945.465, 49.645
945.948, 28.709
946.430, 33.506
946.912, 62.688
947.394, 73.804
947.876, 58.075
948.358, 40.079
948.840, 35.302
949.322, 37.848
949.804, 37.398
950.287, 33.988
950.769, 24.870
951.251, 7.547
951.733, 3.665
952.215, 21.996
952.697, 42.414
953.179, 48.944
953.661, 45.762
954.143, 44.767
954.626, 45.338
955.108, 51.701
955.590, 69.467
956.072, 74.923
956.554, 54.899
957.036, 29.897
957.518, 18.252
958.000, 19.487
958.482, 33.429
958.965, 74.650
959.447, 87.575
959.929, 53.560
960.411, 22.897
960.893, 16.440
961.375, 22.935
961.857, 31.522
962.339, 41.823
962.822, 45.174
963.304, 33.503
963.786, 30.144
964.268, 48.680
964.750, 59.935
965.232, 37.839
965.714, 7.303
966.196, 8.092
966.679, 43.360
967.161, 67.285
967.643, 75.557
968.125, 79.131
968.607, 83.897
969.089, 79.463
969.571, 48.520
970.053, 8.842
970.536, 6.989
971.018, 5.677
971.500, 18.460
971.982, 32.967
972.464, 41.720
972.946, 37.067
973.428, 31.570
973.910, 37.949
974.392, 49.141
974.875, 47.501
975.357, 27.422
975.839, 14.062
976.321, 12.256
976.803, 17.165
977.285, 35.027
977.767, 52.136
978.249, 55.451
978.731, 48.549
979.214, 43.900
979.696, 45.901
980.178, 40.695
980.660, 18.676
981.142, 3.881
981.624, 31.057
982.106, 46.524
982.588, 23.596
983.070, 25.331
983.553, 54.375
984.035, 44.928
984.517, 42.490
984.999, 71.715
985.481, 100.374
985.963, 119.107
986.445, 122.369
986.927, 91.115
987.409, 37.853
987.892, 14.586
988.374, 47.971
988.856, 80.112
989.338, 92.605
989.820, 92.853
990.302, 74.587
990.784, 53.823
991.266, 55.201
991.749, 74.535
992.231, 78.725
992.713, 49.485
993.195, 21.913
993.677, 3.845
994.159, 0.084
994.641, 24.839
995.123, 58.982
995.606, 79.139
996.088, 81.997
996.570, 70.103
997.052, 32.553
997.534, 5.843
998.016, 12.487
998.498, 30.479
998.980, 54.737
999.463, 73.695
999.945, 67.183
1000.427, 37.679
1000.909, 15.924
1001.391, 12.302
1001.873, 21.502
1002.355, 59.985
1002.837, 91.386
1003.319, 78.839
1003.802, 45.387
1004.284, 26.785
1004.766, 26.927
1005.248, 26.489
1005.730, 16.251
1006.212, 7.218
1006.694, 8.246
1007.176, 8.889
1007.658, 6.232
1008.141, 23.304
1008.623, 18.185
1009.105, 9.776
1009.587, 37.194
1010.069, 66.864
1010.551, 73.650
1011.033, 16.007
1011.515, 38.737
1011.997, 30.005
1012.480, 10.096
1012.962, 30.713
1013.444, 26.057
1013.926, 22.740
1014.408, 33.216
1014.890, 41.832
1015.372, 40.328
1015.854, 36.446
1016.337, 28.669
1016.819, 26.021
1017.301, 50.227
1017.783, 48.147
1018.265, 51.598
1018.747, 53.707
1019.229, 54.544
1019.711, 50.305
1020.193, 52.621
1020.676, 52.311
1021.158, 51.892
1021.640, 55.130
1022.122, 51.628
1022.604, 54.812
1023.086, 55.441
1023.568, 57.173
1024.050, 56.263
1024.533, 56.170
1025.015, 58.719
1025.497, 59.805
1025.979, 58.589
1026.461, 60.398
1026.943, 56.803
1027.425, 57.949
1027.907, 61.143
1028.390, 60.028
1028.872, 61.885
1029.354, 62.621
1029.836, 58.269
1030.318, 62.766
1030.800, 61.020
1031.282, 56.606
1031.764, 61.705
1032.246, 64.494
1032.729, 65.098
1033.211, 56.972
1033.693, 60.118
1034.175, 58.747
1034.657, 57.191
1035.139, 61.923
1035.621, 55.065
1036.103, 59.698
1036.585, 59.743
1037.068, 61.888
1037.550, 59.486
1038.032, 58.490
1038.514, 62.039
1038.996, 63.052
1039.478, 59.994
1039.960, 62.074
1040.442, 54.955
1040.925, 56.095
1041.407, 60.752
1041.889, 58.056
1042.371, 60.416
1042.853, 60.850
1043.335, 52.532
1043.817, 59.434
1044.299, 59.754
1044.781, 53.315
1045.264, 59.694
1045.746, 54.186
1046.228, 54.878
1046.710, 24.814
1047.192, 0.115
1047.674, 12.481
1048.156, 45.093
1048.638, 58.519
1049.120, 49.824
1049.603, 48.540
1050.085, 57.453
1050.567, 62.437
1051.049, 59.740
1051.531, 55.521
1052.013, 52.773
1052.495, 53.097
1052.977, 61.341
1053.460, 76.948
1053.942, 77.495
1054.424, 61.471
1054.906, 42.209
1055.388, 20.203
1055.870, 10.220
1056.352, 21.874
1056.834, 41.738
1057.317, 51.211
1057.799, 52.095
1058.281, 53.638
1058.763, 55.708
1059.245, 55.802
1059.727, 53.623
1060.209, 49.660
1060.691, 44.090
1061.173, 37.003
1061.656, 27.858
1062.138, 18.264
1062.620, 10.269
1063.102, 5.486
1063.584, 13.849
1064.066, 33.510
1064.548, 51.319
1065.030, 62.518
1065.512, 65.488
1065.995, 57.533
1066.477, 43.478
1066.959, 25.772
1067.441, 10.105
1067.923, 13.719
1068.405, 29.842
1068.887, 36.273
1069.369, 28.901
1069.852, 19.930
1070.334, 16.534
1070.816, 15.532
1071.298, 15.867
1071.780, 15.092
1072.262, 6.446
1072.744, 3.794
1073.226, 5.533
1073.708, 2.596
1074.191, 21.187
1074.673, 53.413
1075.155, 73.908
1075.637, 56.687
1076.119, 31.621
1076.601, 13.190
1077.083, 5.528
1077.565, 20.511
1078.047, 47.945
1078.530, 63.484
1079.012, 61.216
1079.494, 47.171
1079.976, 0.432
1080.458, 27.229
1080.940, 12.073
1081.422, 57.401
1081.904, 58.415
1082.386, 35.875
1082.869, 31.491
1083.351, 49.508
1083.833, 56.287
1084.315, 28.766
1084.797, 18.148
1085.279, 55.278
1085.761, 81.608
1086.243, 54.177
1086.726, 15.336
1087.208, 15.780
1087.690, 49.344
1088.172, 71.700
1088.654, 82.377
1089.136, 82.078
1089.618, 65.662
1090.100, 49.234
1090.583, 34.149
1091.065, 29.315
1091.547, 46.241
1092.029, 74.466
1092.511, 85.050
1092.993, 76.671
1093.475, 66.097
1093.957, 52.503
1094.439, 46.306
1094.922, 50.849
1095.404, 50.072
1095.886, 32.749
1096.368, 13.301
1096.850, 16.516
1097.332, 35.121
1097.814, 32.832
1098.296, 15.973
1098.778, 28.350
1099.261, 69.906
1099.743, 96.043
1100.225, 89.058
1100.707, 69.359
1101.189, 51.667
1101.671, 41.012
1102.153, 51.523
1102.635, 71.380
1103.118, 80.802
1103.600, 79.293
1104.082, 68.013
1104.564, 49.065
1105.046, 31.016
1105.528, 19.199
1106.010, 7.275
1106.492, 20.710
1106.974, 40.053
1107.457, 17.186
1107.939, 21.746
1108.421, 43.166
1108.903, 46.214
1109.385, 44.124
1109.867, 40.192
1110.349, 33.020
1110.831, 15.530
1111.313, 3.496
1111.796, 5.007
1112.278, 12.408
1112.760, 26.366
1113.242, 39.272
1113.724, 34.445
1114.206, 9.602
1114.688, 1.444
1115.170, 6.437
1115.653, 20.910
1116.135, 50.894
1116.617, 70.481
1117.099, 65.189
1117.581, 50.764
1118.063, 42.055
1118.545, 38.648
1119.027, 40.615
1119.510, 49.904
1119.992, 49.289
1120.474, 36.343
1120.956, 35.290
1121.438, 54.894
1121.920, 57.723
1122.402, 15.137
1122.884, 36.443
1123.366, 31.801
1123.849, 12.152
1124.331, 28.744
1124.813, 23.745
1125.295, 20.357
1125.777, 21.710
1126.259, 25.038
1126.741, 29.093
1127.223, 32.491
1127.705, 33.335
1128.188, 34.319
1128.670, 44.013
1129.152, 51.854
1129.634, 34.050
1130.116, 6.967
1130.598, 7.596
1131.080, 35.607
1131.562, 55.056
1132.045, 50.088
1132.527, 40.697
1133.009, 36.924
1133.491, 31.291
1133.973, 12.528
1134.455, 3.845
1134.937, 1.915
1135.419, 13.557
1135.901, 32.432
1136.384, 55.200
1136.866, 66.880
1137.348, 53.437
1137.830, 50.110
1138.312, 70.361
1138.794, 84.115
1139.276, 73.224
1139.758, 57.311
1140.240, 60.397
1140.723, 75.729
1141.205, 71.726
1141.687, 45.464
1142.169, 25.551
1142.651, 12.165
1143.133, 13.044
1143.615, 30.947
1144.097, 42.417
1144.580, 31.537
1145.062, 13.186
1145.544, 10.376
1146.026, 17.057
1146.508, 15.277
1146.990, 8.996
1147.472, 9.931
1147.954, 17.957
1148.437, 27.013
1148.919, 35.206
1149.401, 45.563
1149.883, 63.165
1150.365, 76.506
1150.847, 73.867
1151.329, 64.424
1151.811, 54.041
1152.293, 44.301
1152.776, 37.431
1153.258, 32.341
1153.740, 24.886
1154.222, 14.052
1154.704, 1.375
1155.186, 29.812
1155.668, 38.584
1156.150, 16.028
1156.632, 61.933
1157.115, 45.388
1157.597, 6.367
1158.079, 0.502
1158.561, 21.663
1159.043, 43.746
1159.525, 71.562
1160.007, 64.312
1160.489, 11.351
1160.972, 20.590
1161.454, 10.270
1161.936, 15.546
1162.418, 39.947
1162.900, 53.538
1163.382, 27.702
1163.864, 18.341
1164.346, 8.713
1164.828, 36.882
1165.311, 52.012
1165.793, 37.335
1166.275, 36.304
1166.757, 61.783
1167.239, 79.754
1167.721, 61.755
1168.203, 38.696
1168.685, 38.315
1169.167, 42.882
1169.650, 33.396
1170.132, 20.308
1170.614, 21.630
1171.096, 33.325
1171.578, 34.392
1172.060, 17.104
1172.542, 8.675
1173.024, 23.289
1173.507, 32.721
1173.989, 31.618
1174.471, 23.837
1174.953, 4.776
1175.435, 11.557
1175.917, 4.680
1176.399, 18.612
1176.881, 22.138
1177.364, 3.201
1177.846, 2.175
1178.328, 7.289
1178.810, 23.522
1179.292, 44.366
1179.774, 38.573
1180.256, 44.000
1180.738, 46.624
1181.220, 46.782
1181.703, 36.803
1182.185, 39.950
1182.667, 37.696
1183.149, 35.260
1183.631, 40.253
1184.113, 31.613
1184.595, 36.476
1185.077, 34.926
1185.559, 18.077
1186.042, 11.988
1186.524, 28.473
1187.006, 39.051
1187.488, 19.309
1187.970, 3.452
1188.452, 4.348
1188.934, 9.059
1189.416, 19.049
1189.899, 25.276
1190.381, 33.298
1190.863, 46.767
1191.345, 48.818
1191.827, 33.745
1192.309, 29.091
1192.791, 47.500
1193.273, 56.118
1193.755, 25.807
1194.238, 17.371
1194.720, 24.676
1195.202, 5.541
1195.684, 11.721
1196.166, 26.549
1196.648, 38.907
1197.130, 47.258
1197.612, 45.589
1198.094, 32.878
1198.577, 16.520
1199.059, 5.592
1199.541, 13.852
1200.023, 26.885
1200.505, 61.673
1200.987, 37.484
1201.469, 3.033
1201.951, 10.447
1202.434, 4.694
1202.916, 3.279
1203.398, 22.230
1203.880, 22.813
1204.362, 20.802
1204.844, 42.629
1205.326, 30.419
1205.808, 14.349
1206.291, 1.844
1206.773, 5.206
1207.255, 39.999
1207.737, 81.528
1208.219, 72.516
1208.701, 26.762
1209.183, 2.595
1209.665, 15.503
1210.147, 4.629
1210.630, 23.000
1211.112, 40.660
1211.594, 39.799
1212.076, 29.357
1212.558, 8.837
1213.040, 4.755
1213.522, 1.482
1214.004, 18.091
1214.486, 55.405
1214.969, 77.046
1215.451, 34.142
1215.933, 27.877
1216.415, 50.307
1216.897, 25.119
1217.379, 13.093
1217.861, 23.896
1218.343, 18.210
1218.826, 14.924
1219.308, 32.974
1219.790, 19.616
1220.272, 1.445
1220.754, 11.747
1221.236, 19.476
1221.718, 46.941
1222.200, 79.307
1222.682, 56.457
1223.165, 7.924
1223.647, 27.166
1224.129, 91.195
1224.611, 94.227
1225.093, 20.528
1225.575, 32.458
1226.057, 6.305
1226.539, 13.621
1227.021, 38.531
1227.504, 78.780
1227.986, 55.371
1228.468, 10.328
1228.950, 35.904
1229.432, 70.929
1229.914, 72.562
1230.396, 44.748
1230.878, 32.202
1231.361, 39.203
1231.843, 35.095
1232.325, 17.582
1232.807, 2.155
1233.289, 7.457
1233.771, 10.882
1234.253, 7.853
1234.735, 2.305
1235.218, 1.789
1235.700, 5.961
1236.182, 12.724
1236.664, 20.989
1237.146, 28.209
1237.628, 36.128
1238.110, 52.962
1238.592, 74.015
1239.074, 74.504
1239.557, 42.800
1240.039, 22.511
1240.521, 31.999
1241.003, 39.801
1241.485, 40.971
1241.967, 38.590
1242.449, 32.220
1242.931, 27.192
1243.413, 30.100
1243.896, 35.600
1244.378, 25.838
1244.860, 5.560
1245.342, 7.220
1245.824, 27.947
1246.306, 60.381
1246.788, 96.642
1247.270, 105.398
1247.753, 80.679
1248.235, 56.903
1248.717, 58.616
1249.199, 63.058
1249.681, 44.771
1250.163, 35.861
1250.645, 68.547
1251.127, 107.855
1251.609, 121.536
1252.092, 117.426
1252.574, 117.842
1253.056, 121.614
1253.538, 119.411
1254.020, 109.801
1254.502, 104.044
1254.984, 103.790
1255.466, 94.605
1255.948, 73.760
1256.431, 50.727
1256.913, 30.111
1257.395, 25.894
1257.877, 60.595
1258.359, 100.405
1258.841, 91.989
##END=



